File: Figure 1F/data/0pulses.DTA
EXPLAIN
TAG	CV
TITLE	LABEL	Cyclic Voltammetry	Test &Identifier
DATE	LABEL	8/19/2021	Date
TIME	LABEL	17:32:37	Time
NOTES	NOTES	1	&Notes...

PSTAT	PSTAT	REF600P-40007	Potentiostat
VINIT	POTEN	0.00000E+000	F	Initial &E (V)
VLIMIT1	POTEN	8.00000E-001	F	Scan Limit &1 (V)
VLIMIT2	POTEN	-6.00000E-001	F	Scan Limit &2 (V)
VFINAL	POTEN	0.00000E+000	F	Final &E (V)
SCANRATE	QUANT	9.99998E+001	&Scan Rate (mV/s)
STEPSIZE	QUANT	1.00000E+001	St&ep Size (mV)
CYCLES	IQUANT	5	C&ycles (#)
IMODE	SELECTOR	0	I/E Range &Mode
IRANGE	QUANT	3.00000E-001	&Max Current (mA)
AREA	QUANT	2.87000E-005	Electrode &Area (cm^2)
ELECTRODETYPE	SELECTOR	0	Electrode Type
STRIPPING	TOGGLE	F	Used for Stripping
POLARITY	TOGGLE	F	Signal Polarity
CONDIT	TWOPARAM	F	1.50000E+001	0.00000E+000	Conditionin&g	Time(s)	E(V)
DELAY	TWOPARAM	T	5.00000E+000	0.00000E+000	Init. De&lay	Time(s)	Stab.(mV/s)
EQDELAY	QUANT	5.00000E+000	Equil. &Time (s)
IRCOMP	SELECTOR	0	IRCom&p
PFCOR	QUANT	5.00000E+001	PF Corr. (ohm)
SAMPLINGMODE	SELECTOR	2	Sampling &Mode
OCVCURVE	TABLE	19
	Pt	T	Vf	Vm	Ach	Over	Temp
	#	s	V vs. Ref.	V	V	bits	deg C
	0	0.258333	5.06222E-001	5.06222E-001	1.14989E-003	..........a	-327.64
	1	0.516667	5.06295E-001	5.10012E-001	1.15135E-003	..........a	-327.64
	2	0.775	5.06741E-001	5.13690E-001	1.14735E-003	..........a	-327.64
	3	1.03333	5.07978E-001	5.15625E-001	1.15555E-003	..........a	-327.64
	4	1.29167	5.10043E-001	5.16099E-001	1.13915E-003	..........a	-327.64
	5	1.55	5.12394E-001	5.16534E-001	1.14242E-003	..........a	-327.64
	6	1.80833	5.14369E-001	5.16838E-001	1.14649E-003	..........a	-327.64
	7	2.06667	5.15680E-001	5.17186E-001	1.14969E-003	..........a	-327.64
	8	2.325	5.16431E-001	5.17318E-001	1.15162E-003	..........a	-327.64
	9	2.58333	5.16841E-001	5.16916E-001	1.14395E-003	..........a	-327.64
	10	2.84167	5.17076E-001	5.18453E-001	1.14202E-003	..........a	-327.64
	11	3.1	5.17315E-001	5.20331E-001	1.14782E-003	..........a	-327.64
	12	3.35833	5.17796E-001	5.20395E-001	1.14389E-003	..........a	-327.64
	13	3.61667	5.18572E-001	5.20162E-001	1.14422E-003	..........a	-327.64
	14	3.875	5.19385E-001	5.20354E-001	1.14549E-003	..........a	-327.64
	15	4.13333	5.19967E-001	5.20842E-001	1.14502E-003	..........a	-327.64
	16	4.39167	5.20306E-001	5.21240E-001	1.15009E-003	..........a	-327.64
	17	4.65	5.20559E-001	5.21498E-001	1.15222E-003	..........a	-327.64
	18	4.90833	5.20833E-001	5.21641E-001	1.14975E-003	..........a	-327.64
EOC	QUANT	0.5208333	Open Circuit (V)
PSTATMODEL	IQUANT	7	Pstat Model
PSTATSECTION	LABEL	REF600P-40007	Pstat Section
PSTATSERIALNO	LABEL	40007	Pstat Serial Number
CTRLMODE	IQUANT	1	Control Mode
ELECTROMETER	IQUANT	0	RE=0 or CS=1
IESTAB	IQUANT	2	I/E Stability
CASPEED	IQUANT	4	Control Amp Speed
CONVENTION	IQUANT	1	Current Convention
ICHRANGE	IQUANT	2	Ich Range
ICHRANGEMODE	TOGGLE	F	Ich Auto Range
ICHOFFSETENABLE	TOGGLE	F	Ich Offset Enable
ICHOFFSET	QUANT	0	Ich Offset (V)
ICHFILTER	IQUANT	2	Ich Filter
VCHRANGE	IQUANT	2	Vch Range
VCHRANGEMODE	TOGGLE	F	Vch Auto Range
VCHOFFSETENABLE	TOGGLE	F	Vch Offset Enable
VCHOFFSET	QUANT	0	Vch Offset (V)
VCHFILTER	IQUANT	2	Vch Filter
ACHRANGE	IQUANT	2	Ach Range
ACHOFFSETENABLE	TOGGLE	F	Ach Offset Enable
ACHOFFSET	QUANT	0	Ach Offset (V)
ACHFILTER	IQUANT	1	Ach Filter
IERANGELOWERLIMIT	IQUANT	1	I/E Range Lower Limit
IERANGEMODE	TOGGLE	T	I/E AutoRange
IERANGE	IQUANT	8	I/E Range
POSFEEDENABLE	TOGGLE	F	Positive Feedback IR Comp
POSFEEDRESISTANCE	QUANT	0	Positive Feedback Resistance (ohm)
ACHSELECT	IQUANT	0	Ach Select
SENSECABLEID	IQUANT	7	Sense Cable ID
PWRCABLEID	IQUANT	7	Power Cable ID
DCCALDATE	LABEL	8/13/2021	DC Calibration Date
ACCALDATE	LABEL	8/13/2021	AC Calibration Date
THERMOSELECT	IQUANT	1	Thermo Select
FRAMEWORKVERSION	LABEL	7.8.1	Framework Version
INSTRUMENTVERSION	LABEL	4.40	Instrument Version
CURVE1	TABLE
	Pt	T	Vf	Im	Vu	Sig	Ach	IERange	Over	Temp
	#	s	V vs. Ref.	A	V	V	V	#	bits	deg C
	0	0.1	-2.30231E-004	1.30420E-007	0.00000E+000	7.45058E-009	1.13885E-003	8	..........a	-327.64
	1	0.2	9.92137E-003	1.18140E-008	0.00000E+000	1.00000E-002	1.14665E-003	7	......s...a	-327.64
	2	0.3	1.98916E-002	4.41059E-009	0.00000E+000	2.00000E-002	1.13439E-003	6	......s...a	-327.64
	3	0.4	2.99101E-002	5.00256E-009	0.00000E+000	3.00000E-002	1.12812E-003	6	..........a	-327.64
	4	0.5	3.98433E-002	5.41795E-009	0.00000E+000	4.00000E-002	4.82875E-005	6	..........a	-327.64
	5	0.6	4.99182E-002	5.78106E-009	0.00000E+000	5.00000E-002	5.20208E-005	6	..........a	-327.64
	6	0.7	5.99220E-002	6.09605E-009	0.00000E+000	6.00000E-002	4.71875E-005	6	..........a	-327.64
	7	0.8	6.98886E-002	6.38120E-009	0.00000E+000	7.00000E-002	4.07208E-005	6	..........a	-327.64
	8	0.9	7.98838E-002	6.66892E-009	0.00000E+000	8.00000E-002	4.39541E-005	6	..........a	-327.64
	9	1	8.98850E-002	6.89205E-009	0.00000E+000	9.00000E-002	4.39875E-005	6	..........a	-327.64
	10	1.1	9.99017E-002	7.13559E-009	0.00000E+000	1.00000E-001	4.30875E-005	6	..........a	-327.64
	11	1.2	1.09898E-001	7.37699E-009	0.00000E+000	1.10000E-001	4.08541E-005	6	..........a	-327.64
	12	1.3	1.19859E-001	7.58259E-009	0.00000E+000	1.20000E-001	4.43208E-005	6	..........a	-327.64
	13	1.4	1.29901E-001	7.79088E-009	0.00000E+000	1.30000E-001	4.66541E-005	6	..........a	-327.64
	14	1.5	1.39936E-001	8.01495E-009	0.00000E+000	1.40000E-001	4.20875E-005	6	..........a	-327.64
	15	1.6	1.49902E-001	8.18656E-009	0.00000E+000	1.50000E-001	4.58875E-005	6	..........a	-327.64
	16	1.7	1.59882E-001	8.40273E-009	0.00000E+000	1.60000E-001	5.03208E-005	6	..........a	-327.64
	17	1.8	1.69905E-001	8.56694E-009	0.00000E+000	1.70000E-001	4.52208E-005	6	..........a	-327.64
	18	1.9	1.79899E-001	8.76177E-009	0.00000E+000	1.80000E-001	3.91208E-005	6	..........a	-327.64
	19	2	1.89915E-001	8.91704E-009	0.00000E+000	1.90000E-001	4.51875E-005	6	..........a	-327.64
	20	2.1	1.99881E-001	9.09223E-009	0.00000E+000	2.00000E-001	4.28875E-005	6	..........a	-327.64
	21	2.2	2.09900E-001	9.26448E-009	0.00000E+000	2.10000E-001	4.03875E-005	6	..........a	-327.64
	22	2.3	2.19898E-001	9.45867E-009	0.00000E+000	2.20000E-001	4.39541E-005	6	..........a	-327.64
	23	2.4	2.29892E-001	9.62035E-009	0.00000E+000	2.30000E-001	4.00208E-005	6	..........a	-327.64
	24	2.5	2.39908E-001	9.77956E-009	0.00000E+000	2.40000E-001	4.48541E-005	6	..........a	-327.64
	25	2.6	2.49910E-001	9.92044E-009	0.00000E+000	2.50000E-001	4.07208E-005	6	..........a	-327.64
	26	2.7	2.59901E-001	1.01020E-008	0.00000E+000	2.60000E-001	3.62875E-005	6	..........a	-327.64
	27	2.8	2.69860E-001	1.02722E-008	0.00000E+000	2.70000E-001	3.85875E-005	6	..........a	-327.64
	28	2.9	2.79872E-001	1.04283E-008	0.00000E+000	2.80000E-001	3.94875E-005	6	..........a	-327.64
	29	3	2.89917E-001	1.05726E-008	0.00000E+000	2.90000E-001	3.79541E-005	6	..........a	-327.64
	30	3.1	2.99915E-001	1.07578E-008	0.00000E+000	3.00000E-001	4.04875E-005	6	..........a	-327.64
	31	3.2	3.09885E-001	1.09268E-008	0.00000E+000	3.10000E-001	3.71541E-005	6	..........a	-327.64
	32	3.3	3.19897E-001	1.11181E-008	0.00000E+000	3.20000E-001	3.97541E-005	6	..........a	-327.64
	33	3.4	3.29892E-001	1.12794E-008	0.00000E+000	3.30000E-001	3.94541E-005	6	..........a	-327.64
	34	3.5	3.39918E-001	1.14480E-008	0.00000E+000	3.40000E-001	4.13875E-005	6	..........a	-327.64
	35	3.6	3.49928E-001	1.16060E-008	0.00000E+000	3.50000E-001	4.05208E-005	6	..........a	-327.64
	36	3.7	3.59864E-001	1.17720E-008	0.00000E+000	3.60000E-001	4.02541E-005	6	..........a	-327.64
	37	3.8	3.69907E-001	1.19383E-008	0.00000E+000	3.70000E-001	4.30541E-005	6	..........a	-327.64
	38	3.9	3.79897E-001	1.20899E-008	0.00000E+000	3.80000E-001	4.02541E-005	6	..........a	-327.64
	39	4	3.89905E-001	1.22613E-008	0.00000E+000	3.90000E-001	5.01541E-005	6	..........a	-327.64
	40	4.1	3.99869E-001	1.24467E-008	0.00000E+000	4.00000E-001	4.75875E-005	6	..........a	-327.64
	41	4.2	4.09944E-001	1.26135E-008	0.00000E+000	4.10000E-001	4.21875E-005	6	..........a	-327.64
	42	4.3	4.19991E-001	1.27408E-008	0.00000E+000	4.20000E-001	4.03208E-005	6	..........a	-327.64
	43	4.4	4.29945E-001	1.29049E-008	0.00000E+000	4.30000E-001	4.17208E-005	6	..........a	-327.64
	44	4.5	4.39954E-001	1.30842E-008	0.00000E+000	4.40000E-001	4.83541E-005	6	..........a	-327.64
	45	4.6	4.49949E-001	1.32378E-008	0.00000E+000	4.50000E-001	4.43541E-005	6	..........a	-327.64
	46	4.7	4.59975E-001	1.33692E-008	0.00000E+000	4.60000E-001	4.00208E-005	6	..........a	-327.64
	47	4.8	4.69958E-001	1.35612E-008	0.00000E+000	4.70000E-001	4.32541E-005	6	..........a	-327.64
	48	4.9	4.79941E-001	1.37051E-008	0.00000E+000	4.80000E-001	4.56541E-005	6	..........a	-327.64
	49	5	4.89963E-001	1.38569E-008	0.00000E+000	4.90000E-001	4.15208E-005	6	..........a	-327.64
	50	5.1	4.99926E-001	1.40656E-008	0.00000E+000	5.00000E-001	4.37875E-005	6	..........a	-327.64
	51	5.2	5.09951E-001	1.42298E-008	0.00000E+000	5.10000E-001	4.31541E-005	6	..........a	-327.64
	52	5.3	5.19949E-001	1.44391E-008	0.00000E+000	5.20000E-001	4.04208E-005	6	..........a	-327.64
	53	5.4	5.29949E-001	1.46315E-008	0.00000E+000	5.30000E-001	3.87875E-005	6	..........a	-327.64
	54	5.5	5.39965E-001	1.48383E-008	0.00000E+000	5.40000E-001	4.38208E-005	6	..........a	-327.64
	55	5.6	5.49970E-001	1.51046E-008	0.00000E+000	5.50000E-001	4.45208E-005	6	..........a	-327.64
	56	5.7	5.59951E-001	1.54302E-008	0.00000E+000	5.60000E-001	4.75208E-005	6	..........a	-327.64
	57	5.8	5.69961E-001	1.57836E-008	0.00000E+000	5.70000E-001	5.08875E-005	6	..........a	-327.64
	58	5.9	5.79978E-001	1.61973E-008	0.00000E+000	5.80000E-001	5.01541E-005	6	..........a	-327.64
	59	6	5.89949E-001	1.66421E-008	0.00000E+000	5.90000E-001	4.05208E-005	6	..........a	-327.64
	60	6.1	5.99970E-001	1.71287E-008	0.00000E+000	6.00000E-001	4.20208E-005	6	..........a	-327.64
	61	6.2	6.09963E-001	1.76470E-008	0.00000E+000	6.10000E-001	4.32541E-005	6	..........a	-327.64
	62	6.3	6.19962E-001	1.82166E-008	0.00000E+000	6.20000E-001	4.01875E-005	6	..........a	-327.64
	63	6.4	6.29959E-001	1.88571E-008	0.00000E+000	6.30000E-001	3.45875E-005	6	..........a	-327.64
	64	6.5	6.39925E-001	1.94441E-008	0.00000E+000	6.40000E-001	3.77208E-005	6	..........a	-327.64
	65	6.6	6.49973E-001	2.01687E-008	0.00000E+000	6.50000E-001	3.67541E-005	6	..........a	-327.64
	66	6.7	6.59965E-001	2.08468E-008	0.00000E+000	6.60000E-001	3.69541E-005	6	..........a	-327.64
	67	6.8	6.69945E-001	2.15360E-008	0.00000E+000	6.70000E-001	3.43875E-005	6	..........a	-327.64
	68	6.9	6.79902E-001	2.22592E-008	0.00000E+000	6.80000E-001	3.56875E-005	6	..........a	-327.64
	69	7	6.89950E-001	2.30002E-008	0.00000E+000	6.90000E-001	3.45208E-005	6	..........a	-327.64
	70	7.1	6.99985E-001	2.37761E-008	0.00000E+000	7.00000E-001	3.15208E-005	6	..........a	-327.64
	71	7.2	7.09953E-001	2.45222E-008	0.00000E+000	7.10000E-001	3.11208E-005	6	..........a	-327.64
	72	7.3	7.19923E-001	2.53325E-008	0.00000E+000	7.20000E-001	3.37875E-005	6	..........a	-327.64
	73	7.4	7.29925E-001	2.61369E-008	0.00000E+000	7.30000E-001	3.24541E-005	6	..........a	-327.64
	74	7.5	7.39954E-001	2.69676E-008	0.00000E+000	7.40000E-001	3.74208E-005	6	..........a	-327.64
	75	7.6	7.49956E-001	2.78099E-008	0.00000E+000	7.50000E-001	3.23875E-005	6	..........a	-327.64
	76	7.7	7.59989E-001	2.86905E-008	0.00000E+000	7.60000E-001	3.30208E-005	6	..........a	-327.64
	77	7.8	7.69944E-001	2.96073E-008	0.00000E+000	7.70000E-001	3.53541E-005	6	..........a	-327.64
	78	7.9	7.79975E-001	3.05463E-008	0.00000E+000	7.80000E-001	3.65541E-005	6	..........a	-327.64
	79	8	7.89938E-001	3.14047E-008	0.00000E+000	7.90000E-001	3.72875E-005	6	..........a	-327.64
	80	8.1	7.99953E-001	3.24321E-008	0.00000E+000	8.00000E-001	3.45208E-005	6	..........a	-327.64
	81	8.2	7.89979E-001	1.59615E-008	0.00000E+000	7.90000E-001	3.21875E-005	6	..........a	-327.64
	82	8.3	7.80012E-001	1.09738E-008	0.00000E+000	7.80000E-001	3.77875E-005	6	..........a	-327.64
	83	8.4	7.69980E-001	7.47185E-009	0.00000E+000	7.70000E-001	4.15541E-005	6	..........a	-327.64
	84	8.5	7.60036E-001	4.88223E-009	0.00000E+000	7.60000E-001	3.88541E-005	6	..........a	-327.64
	85	8.6	7.49999E-001	2.84399E-009	0.00000E+000	7.50000E-001	4.02541E-005	6	..........a	-327.64
	86	8.7	7.39999E-001	1.26473E-009	0.00000E+000	7.40000E-001	4.30208E-005	6	..........a	-327.64
	87	8.8	7.29968E-001	-1.93480E-011	0.00000E+000	7.30000E-001	3.78875E-005	6	..........a	-327.64
	88	8.9	7.19967E-001	-1.06322E-009	0.00000E+000	7.20000E-001	3.77208E-005	6	..........a	-327.64
	89	9	7.09997E-001	-1.96665E-009	0.00000E+000	7.10000E-001	4.18541E-005	6	..........a	-327.64
	90	9.1	7.00029E-001	-2.72218E-009	0.00000E+000	7.00000E-001	4.40875E-005	6	..........a	-327.64
	91	9.2	6.89992E-001	-3.40241E-009	0.00000E+000	6.90000E-001	4.03875E-005	6	..........a	-327.64
	92	9.3	6.79946E-001	-3.93416E-009	0.00000E+000	6.80000E-001	4.39208E-005	6	..........a	-327.64
	93	9.4	6.69986E-001	-4.44868E-009	0.00000E+000	6.70000E-001	3.75875E-005	6	..........a	-327.64
	94	9.5	6.60020E-001	-4.87878E-009	0.00000E+000	6.60000E-001	3.67875E-005	6	..........a	-327.64
	95	9.6	6.50016E-001	-5.23751E-009	0.00000E+000	6.50000E-001	4.02208E-005	6	..........a	-327.64
	96	9.7	6.39971E-001	-5.62346E-009	0.00000E+000	6.40000E-001	4.78875E-005	6	..........a	-327.64
	97	9.8	6.29999E-001	-5.96576E-009	0.00000E+000	6.30000E-001	4.05208E-005	6	..........a	-327.64
	98	9.9	6.20008E-001	-6.23998E-009	0.00000E+000	6.20000E-001	3.93541E-005	6	..........a	-327.64
	99	10	6.10003E-001	-6.50956E-009	0.00000E+000	6.10000E-001	3.94875E-005	6	..........a	-327.64
	100	10.1	6.00011E-001	-6.76233E-009	0.00000E+000	6.00000E-001	3.78875E-005	6	..........a	-327.64
	101	10.2	5.89986E-001	-7.02474E-009	0.00000E+000	5.90000E-001	3.69541E-005	6	..........a	-327.64
	102	10.3	5.80014E-001	-7.24604E-009	0.00000E+000	5.80000E-001	4.15875E-005	6	..........a	-327.64
	103	10.4	5.69995E-001	-7.45130E-009	0.00000E+000	5.70000E-001	4.52541E-005	6	..........a	-327.64
	104	10.5	5.59991E-001	-7.63902E-009	0.00000E+000	5.60000E-001	3.97541E-005	6	..........a	-327.64
	105	10.6	5.50006E-001	-7.82734E-009	0.00000E+000	5.50000E-001	4.03541E-005	6	..........a	-327.64
	106	10.7	5.40008E-001	-8.01116E-009	0.00000E+000	5.40000E-001	3.62208E-005	6	..........a	-327.64
	107	10.8	5.29985E-001	-8.15677E-009	0.00000E+000	5.30000E-001	4.55875E-005	6	..........a	-327.64
	108	10.9	5.19988E-001	-8.30995E-009	0.00000E+000	5.20000E-001	4.15875E-005	6	..........a	-327.64
	109	11	5.09989E-001	-8.44586E-009	0.00000E+000	5.10000E-001	4.07208E-005	6	..........a	-327.64
	110	11.1	4.99970E-001	-8.61411E-009	0.00000E+000	5.00000E-001	4.32208E-005	6	..........a	-327.64
	111	11.2	4.90001E-001	-8.77926E-009	0.00000E+000	4.90000E-001	4.41208E-005	6	..........a	-327.64
	112	11.3	4.79982E-001	-8.85945E-009	0.00000E+000	4.80000E-001	3.74875E-005	6	..........a	-327.64
	113	11.4	4.69999E-001	-9.02019E-009	0.00000E+000	4.70000E-001	4.41208E-005	6	..........a	-327.64
	114	11.5	4.60013E-001	-9.07628E-009	0.00000E+000	4.60000E-001	4.39208E-005	6	..........a	-327.64
	115	11.6	4.49989E-001	-9.18397E-009	0.00000E+000	4.50000E-001	4.24541E-005	6	..........a	-327.64
	116	11.7	4.39993E-001	-9.26350E-009	0.00000E+000	4.40000E-001	4.13541E-005	6	..........a	-327.64
	117	11.8	4.29982E-001	-9.39250E-009	0.00000E+000	4.30000E-001	4.32541E-005	6	..........a	-327.64
	118	11.9	4.20029E-001	-9.40897E-009	0.00000E+000	4.20000E-001	3.81541E-005	6	..........a	-327.64
	119	12	4.09983E-001	-9.54908E-009	0.00000E+000	4.10000E-001	4.11541E-005	6	..........a	-327.64
	120	12.1	3.99911E-001	-9.61633E-009	0.00000E+000	4.00000E-001	3.88875E-005	6	..........a	-327.64
	121	12.2	3.89941E-001	-9.69532E-009	0.00000E+000	3.90000E-001	4.26541E-005	6	..........a	-327.64
	122	12.3	3.79936E-001	-9.76398E-009	0.00000E+000	3.80000E-001	4.15541E-005	6	..........a	-327.64
	123	12.4	3.69942E-001	-9.83403E-009	0.00000E+000	3.70000E-001	4.17541E-005	6	..........a	-327.64
	124	12.5	3.59903E-001	-9.86834E-009	0.00000E+000	3.60000E-001	3.99208E-005	6	..........a	-327.64
	125	12.6	3.49965E-001	-9.94963E-009	0.00000E+000	3.50000E-001	3.84875E-005	6	..........a	-327.64
	126	12.7	3.39959E-001	-9.98041E-009	0.00000E+000	3.40000E-001	4.36541E-005	6	..........a	-327.64
	127	12.8	3.29931E-001	-1.00465E-008	0.00000E+000	3.30000E-001	4.53208E-005	6	..........a	-327.64
	128	12.9	3.19937E-001	-1.00851E-008	0.00000E+000	3.20000E-001	4.57208E-005	6	..........a	-327.64
	129	13	3.09923E-001	-1.01435E-008	0.00000E+000	3.10000E-001	4.75208E-005	6	..........a	-327.64
	130	13.1	2.99952E-001	-1.01771E-008	0.00000E+000	3.00000E-001	4.03208E-005	6	..........a	-327.64
	131	13.2	2.89959E-001	-1.02530E-008	0.00000E+000	2.90000E-001	4.29541E-005	6	..........a	-327.64
	132	13.3	2.79919E-001	-1.02608E-008	0.00000E+000	2.80000E-001	4.20875E-005	6	..........a	-327.64
	133	13.4	2.69902E-001	-1.03088E-008	0.00000E+000	2.70000E-001	3.82875E-005	6	..........a	-327.64
	134	13.5	2.59946E-001	-1.03262E-008	0.00000E+000	2.60000E-001	3.70875E-005	6	..........a	-327.64
	135	13.6	2.49948E-001	-1.03398E-008	0.00000E+000	2.50000E-001	4.27875E-005	6	..........a	-327.64
	136	13.7	2.39949E-001	-1.03784E-008	0.00000E+000	2.40000E-001	3.56541E-005	6	..........a	-327.64
	137	13.8	2.29933E-001	-1.03586E-008	0.00000E+000	2.30000E-001	4.29541E-005	6	..........a	-327.64
	138	13.9	2.19946E-001	-1.04420E-008	0.00000E+000	2.20000E-001	4.23208E-005	6	..........a	-327.64
	139	14	2.09943E-001	-1.04430E-008	0.00000E+000	2.10000E-001	4.29208E-005	6	..........a	-327.64
	140	14.1	1.99926E-001	-1.04870E-008	0.00000E+000	2.00000E-001	4.08208E-005	6	..........a	-327.64
	141	14.2	1.89957E-001	-1.04918E-008	0.00000E+000	1.90000E-001	4.45541E-005	6	..........a	-327.64
	142	14.3	1.79941E-001	-1.04842E-008	0.00000E+000	1.80000E-001	3.46875E-005	6	..........a	-327.64
	143	14.4	1.69947E-001	-1.05175E-008	0.00000E+000	1.70000E-001	3.66541E-005	6	..........a	-327.64
	144	14.5	1.59925E-001	-1.05728E-008	0.00000E+000	1.60000E-001	3.83875E-005	6	..........a	-327.64
	145	14.6	1.49938E-001	-1.05833E-008	0.00000E+000	1.50000E-001	4.00875E-005	6	..........a	-327.64
	146	14.7	1.39971E-001	-1.06121E-008	0.00000E+000	1.40000E-001	3.75541E-005	6	..........a	-327.64
	147	14.8	1.29937E-001	-1.06464E-008	0.00000E+000	1.30000E-001	4.14208E-005	6	..........a	-327.64
	148	14.9	1.19898E-001	-1.06765E-008	0.00000E+000	1.20000E-001	4.62875E-005	6	..........a	-327.64
	149	15	1.09930E-001	-1.06850E-008	0.00000E+000	1.10000E-001	3.95541E-005	6	..........a	-327.64
	150	15.1	9.99436E-002	-1.07056E-008	0.00000E+000	1.00000E-001	3.49875E-005	6	..........a	-327.64
	151	15.2	8.99135E-002	-1.07766E-008	0.00000E+000	9.00000E-002	3.93208E-005	6	..........a	-327.64
	152	15.3	7.99250E-002	-1.08105E-008	0.00000E+000	8.00000E-002	4.11875E-005	6	..........a	-327.64
	153	15.4	6.99246E-002	-1.08678E-008	0.00000E+000	7.00000E-002	4.14541E-005	6	..........a	-327.64
	154	15.5	5.99598E-002	-1.09045E-008	0.00000E+000	6.00000E-002	3.97875E-005	6	..........a	-327.64
	155	15.6	4.99532E-002	-1.09222E-008	0.00000E+000	5.00000E-002	4.52208E-005	6	..........a	-327.64
	156	15.7	3.98859E-002	-1.09843E-008	0.00000E+000	4.00000E-002	4.64875E-005	6	..........a	-327.64
	157	15.8	2.99470E-002	-1.10313E-008	0.00000E+000	3.00000E-002	4.32875E-005	6	..........a	-327.64
	158	15.9	1.99270E-002	-1.10748E-008	0.00000E+000	2.00000E-002	4.01541E-005	6	..........a	-327.64
	159	16	9.94566E-003	-1.11344E-008	0.00000E+000	1.00000E-002	3.98541E-005	6	..........a	-327.64
	160	16.1	-2.09418E-004	-1.12106E-008	0.00000E+000	7.45058E-009	4.31541E-005	6	..........a	-327.64
	161	16.2	-1.01947E-002	-1.12699E-008	0.00000E+000	-1.00000E-002	4.12875E-005	6	..........a	-327.64
	162	16.3	-2.01661E-002	-1.13960E-008	0.00000E+000	-2.00000E-002	3.93875E-005	6	..........a	-327.64
	163	16.4	-3.02011E-002	-1.14907E-008	0.00000E+000	-3.00000E-002	4.51541E-005	6	..........a	-327.64
	164	16.5	-4.01823E-002	-1.16084E-008	0.00000E+000	-4.00000E-002	4.21208E-005	6	..........a	-327.64
	165	16.6	-5.02134E-002	-1.17155E-008	0.00000E+000	-5.00000E-002	3.98541E-005	6	..........a	-327.64
	166	16.7	-6.01914E-002	-1.18256E-008	0.00000E+000	-6.00000E-002	4.68208E-005	6	..........a	-327.64
	167	16.8	-7.01760E-002	-1.20039E-008	0.00000E+000	-7.00000E-002	3.77541E-005	6	..........a	-327.64
	168	16.9	-8.02273E-002	-1.21163E-008	0.00000E+000	-8.00000E-002	3.68208E-005	6	..........a	-327.64
	169	17	-9.01796E-002	-1.22982E-008	0.00000E+000	-9.00000E-002	3.83541E-005	6	..........a	-327.64
	170	17.1	-1.00203E-001	-1.24692E-008	0.00000E+000	-1.00000E-001	3.92541E-005	6	..........a	-327.64
	171	17.2	-1.10155E-001	-1.26550E-008	0.00000E+000	-1.10000E-001	4.27541E-005	6	..........a	-327.64
	172	17.3	-1.20173E-001	-1.28432E-008	0.00000E+000	-1.20000E-001	3.82541E-005	6	..........a	-327.64
	173	17.4	-1.30185E-001	-1.30431E-008	0.00000E+000	-1.30000E-001	4.09208E-005	6	..........a	-327.64
	174	17.5	-1.40235E-001	-1.32726E-008	0.00000E+000	-1.40000E-001	3.84541E-005	6	..........a	-327.64
	175	17.6	-1.50192E-001	-1.35604E-008	0.00000E+000	-1.50000E-001	4.17208E-005	6	..........a	-327.64
	176	17.7	-1.60212E-001	-1.38414E-008	0.00000E+000	-1.60000E-001	4.48875E-005	6	..........a	-327.64
	177	17.8	-1.70164E-001	-1.40940E-008	0.00000E+000	-1.70000E-001	3.86541E-005	6	..........a	-327.64
	178	17.9	-1.80193E-001	-1.44454E-008	0.00000E+000	-1.80000E-001	4.19875E-005	6	..........a	-327.64
	179	18	-1.90228E-001	-1.47020E-008	0.00000E+000	-1.90000E-001	4.33875E-005	6	..........a	-327.64
	180	18.1	-2.00205E-001	-1.50528E-008	0.00000E+000	-2.00000E-001	4.50541E-005	6	..........a	-327.64
	181	18.2	-2.10187E-001	-1.53564E-008	0.00000E+000	-2.10000E-001	3.95875E-005	6	..........a	-327.64
	182	18.3	-2.20158E-001	-1.57491E-008	0.00000E+000	-2.20000E-001	4.54541E-005	6	..........a	-327.64
	183	18.4	-2.30211E-001	-1.60944E-008	0.00000E+000	-2.30000E-001	4.01208E-005	6	..........a	-327.64
	184	18.5	-2.40245E-001	-1.64978E-008	0.00000E+000	-2.40000E-001	4.27208E-005	6	..........a	-327.64
	185	18.6	-2.50188E-001	-1.69295E-008	0.00000E+000	-2.50000E-001	4.01541E-005	6	..........a	-327.64
	186	18.7	-2.60177E-001	-1.73359E-008	0.00000E+000	-2.60000E-001	4.07875E-005	6	..........a	-327.64
	187	18.8	-2.70165E-001	-1.78517E-008	0.00000E+000	-2.70000E-001	3.79541E-005	6	..........a	-327.64
	188	18.9	-2.80216E-001	-1.83192E-008	0.00000E+000	-2.80000E-001	3.71208E-005	6	..........a	-327.64
	189	19	-2.90155E-001	-1.88519E-008	0.00000E+000	-2.90000E-001	3.79208E-005	6	..........a	-327.64
	190	19.1	-3.00172E-001	-1.93820E-008	0.00000E+000	-3.00000E-001	3.99208E-005	6	..........a	-327.64
	191	19.2	-3.10195E-001	-1.99634E-008	0.00000E+000	-3.10000E-001	3.93875E-005	6	..........a	-327.64
	192	19.3	-3.20177E-001	-2.05472E-008	0.00000E+000	-3.20000E-001	4.18208E-005	6	..........a	-327.64
	193	19.4	-3.30195E-001	-2.11596E-008	0.00000E+000	-3.30000E-001	4.30208E-005	6	..........a	-327.64
	194	19.5	-3.40191E-001	-2.18136E-008	0.00000E+000	-3.40000E-001	4.41541E-005	6	..........a	-327.64
	195	19.6	-3.50188E-001	-2.25290E-008	0.00000E+000	-3.50000E-001	4.29875E-005	6	..........a	-327.64
	196	19.7	-3.60205E-001	-2.32714E-008	0.00000E+000	-3.60000E-001	4.15541E-005	6	..........a	-327.64
	197	19.8	-3.70223E-001	-2.40610E-008	0.00000E+000	-3.70000E-001	4.27541E-005	6	..........a	-327.64
	198	19.9	-3.80180E-001	-2.49069E-008	0.00000E+000	-3.80000E-001	3.99541E-005	6	..........a	-327.64
	199	20	-3.90205E-001	-2.57739E-008	0.00000E+000	-3.90000E-001	4.37541E-005	6	..........a	-327.64
	200	20.1	-4.00191E-001	-2.66702E-008	0.00000E+000	-4.00000E-001	4.63875E-005	6	..........a	-327.64
	201	20.2	-4.10252E-001	-2.76542E-008	0.00000E+000	-4.10000E-001	4.45875E-005	6	..........a	-327.64
	202	20.3	-4.20268E-001	-2.86671E-008	0.00000E+000	-4.20000E-001	4.24208E-005	6	..........a	-327.64
	203	20.4	-4.30248E-001	-2.97169E-008	0.00000E+000	-4.30000E-001	3.99541E-005	6	..........a	-327.64
	204	20.5	-4.40278E-001	-3.07995E-008	0.00000E+000	-4.40000E-001	4.59541E-005	6	..........a	-327.64
	205	20.6	-4.50232E-001	-3.20633E-008	0.00000E+000	-4.50000E-001	4.27208E-005	6	..........a	-327.64
	206	20.7	-4.60252E-001	-3.32731E-008	0.00000E+000	-4.60000E-001	3.80208E-005	6	..........a	-327.64
	207	20.8	-4.70245E-001	-3.45088E-008	0.00000E+000	-4.70000E-001	3.98541E-005	6	..........a	-327.64
	208	20.9	-4.80255E-001	-3.58428E-008	0.00000E+000	-4.80000E-001	4.29208E-005	6	..........a	-327.64
	209	21	-4.90257E-001	-3.71837E-008	0.00000E+000	-4.90000E-001	4.08541E-005	6	..........a	-327.64
	210	21.1	-5.00223E-001	-3.86380E-008	0.00000E+000	-5.00000E-001	4.46208E-005	6	..........a	-327.64
	211	21.2	-5.10267E-001	-4.00869E-008	0.00000E+000	-5.10000E-001	4.28541E-005	6	..........a	-327.64
	212	21.3	-5.20200E-001	-4.15487E-008	0.00000E+000	-5.20000E-001	4.42541E-005	6	..........a	-327.64
	213	21.4	-5.30210E-001	-4.30693E-008	0.00000E+000	-5.30000E-001	3.91208E-005	6	..........a	-327.64
	214	21.5	-5.40235E-001	-4.46262E-008	0.00000E+000	-5.40000E-001	4.32875E-005	6	..........a	-327.64
	215	21.6	-5.50263E-001	-4.62090E-008	0.00000E+000	-5.50000E-001	4.49541E-005	6	..........a	-327.64
	216	21.7	-5.60263E-001	-4.78162E-008	0.00000E+000	-5.60000E-001	4.38541E-005	6	..........a	-327.64
	217	21.8	-5.70210E-001	-4.95172E-008	0.00000E+000	-5.70000E-001	4.47875E-005	6	..........a	-327.64
	218	21.9	-5.80202E-001	-5.11775E-008	0.00000E+000	-5.80000E-001	4.41208E-005	6	..........a	-327.64
	219	22	-5.90248E-001	-5.27873E-008	0.00000E+000	-5.90000E-001	4.61541E-005	6	..........a	-327.64
	220	22.1	-6.00295E-001	-5.45321E-008	0.00000E+000	-6.00000E-001	3.55541E-005	6	..........a	-327.64
CURVE2	TABLE
	Pt	T	Vf	Im	Vu	Sig	Ach	IERange	Over	Temp
	#	s	V vs. Ref.	A	V	V	V	#	bits	deg C
	221	22.2	-5.90294E-001	-4.16929E-008	0.00000E+000	-5.90000E-001	4.33541E-005	6	..........a	-327.64
	222	22.3	-5.80245E-001	-3.76921E-008	0.00000E+000	-5.80000E-001	3.96541E-005	6	..........a	-327.64
	223	22.4	-5.70262E-001	-3.48461E-008	0.00000E+000	-5.70000E-001	3.88541E-005	6	..........a	-327.64
	224	22.5	-5.60310E-001	-3.24905E-008	0.00000E+000	-5.60000E-001	3.92208E-005	6	..........a	-327.64
	225	22.6	-5.50324E-001	-3.02233E-008	0.00000E+000	-5.50000E-001	3.64875E-005	6	..........a	-327.64
	226	22.7	-5.40295E-001	-2.79404E-008	0.00000E+000	-5.40000E-001	3.35208E-005	6	..........a	-327.64
	227	22.8	-5.30269E-001	-2.57534E-008	0.00000E+000	-5.30000E-001	3.32208E-005	6	..........a	-327.64
	228	22.9	-5.20257E-001	-2.36139E-008	0.00000E+000	-5.20000E-001	4.21208E-005	6	..........a	-327.64
	229	23	-5.10320E-001	-2.16370E-008	0.00000E+000	-5.10000E-001	3.70541E-005	6	..........a	-327.64
	230	23.1	-5.00274E-001	-1.96973E-008	0.00000E+000	-5.00000E-001	3.69541E-005	6	..........a	-327.64
	231	23.2	-4.90307E-001	-1.77870E-008	0.00000E+000	-4.90000E-001	4.08541E-005	6	..........a	-327.64
	232	23.3	-4.80305E-001	-1.59899E-008	0.00000E+000	-4.80000E-001	4.41875E-005	6	..........a	-327.64
	233	23.4	-4.70295E-001	-1.42775E-008	0.00000E+000	-4.70000E-001	4.04208E-005	6	..........a	-327.64
	234	23.5	-4.60302E-001	-1.26802E-008	0.00000E+000	-4.60000E-001	4.11541E-005	6	..........a	-327.64
	235	23.6	-4.50281E-001	-1.11510E-008	0.00000E+000	-4.50000E-001	4.21541E-005	6	..........a	-327.64
	236	23.7	-4.40328E-001	-9.76528E-009	0.00000E+000	-4.40000E-001	3.81541E-005	6	..........a	-327.64
	237	23.8	-4.30300E-001	-8.47500E-009	0.00000E+000	-4.30000E-001	3.74208E-005	6	..........a	-327.64
	238	23.9	-4.20322E-001	-7.29272E-009	0.00000E+000	-4.20000E-001	4.00208E-005	6	..........a	-327.64
	239	24	-4.10303E-001	-6.19623E-009	0.00000E+000	-4.10000E-001	3.69875E-005	6	..........a	-327.64
	240	24.1	-4.00240E-001	-5.19930E-009	0.00000E+000	-4.00000E-001	3.64541E-005	6	..........a	-327.64
	241	24.2	-3.90255E-001	-4.29114E-009	0.00000E+000	-3.90000E-001	3.99208E-005	6	..........a	-327.64
	242	24.3	-3.80231E-001	-3.41531E-009	0.00000E+000	-3.80000E-001	3.84208E-005	6	..........a	-327.64
	243	24.4	-3.70271E-001	-2.59544E-009	0.00000E+000	-3.70000E-001	3.99208E-005	6	..........a	-327.64
	244	24.5	-3.60251E-001	-1.84688E-009	0.00000E+000	-3.60000E-001	3.69541E-005	6	..........a	-327.64
	245	24.6	-3.50232E-001	-1.11404E-009	0.00000E+000	-3.50000E-001	3.93875E-005	6	..........a	-327.64
	246	24.7	-3.40241E-001	-4.50575E-010	0.00000E+000	-3.40000E-001	3.71541E-005	6	..........a	-327.64
	247	24.8	-3.30237E-001	1.45867E-010	0.00000E+000	-3.30000E-001	4.01208E-005	6	..........a	-327.64
	248	24.9	-3.20219E-001	7.62815E-010	0.00000E+000	-3.20000E-001	4.17875E-005	6	..........a	-327.64
	249	25	-3.10240E-001	1.35652E-009	0.00000E+000	-3.10000E-001	3.78541E-005	6	..........a	-327.64
	250	25.1	-3.00214E-001	1.75421E-009	0.00000E+000	-3.00000E-001	4.29541E-005	6	..........a	-327.64
	251	25.2	-2.90189E-001	2.45151E-009	0.00000E+000	-2.90000E-001	4.04208E-005	6	..........a	-327.64
	252	25.3	-2.80258E-001	2.97647E-009	0.00000E+000	-2.80000E-001	4.23875E-005	6	..........a	-327.64
	253	25.4	-2.70204E-001	3.54723E-009	0.00000E+000	-2.70000E-001	3.90541E-005	6	..........a	-327.64
	254	25.5	-2.60215E-001	4.09269E-009	0.00000E+000	-2.60000E-001	3.73541E-005	6	..........a	-327.64
	255	25.6	-2.50230E-001	4.59684E-009	0.00000E+000	-2.50000E-001	4.15208E-005	6	..........a	-327.64
	256	25.7	-2.40287E-001	5.12713E-009	0.00000E+000	-2.40000E-001	4.13541E-005	6	..........a	-327.64
	257	25.8	-2.30248E-001	5.63385E-009	0.00000E+000	-2.30000E-001	4.36541E-005	6	..........a	-327.64
	258	25.9	-2.20192E-001	6.15187E-009	0.00000E+000	-2.20000E-001	4.18208E-005	6	..........a	-327.64
	259	26	-2.10221E-001	6.65868E-009	0.00000E+000	-2.10000E-001	3.66208E-005	6	..........a	-327.64
	260	26.1	-2.00244E-001	7.15629E-009	0.00000E+000	-2.00000E-001	3.86208E-005	6	..........a	-327.64
	261	26.2	-1.90268E-001	7.66738E-009	0.00000E+000	-1.90000E-001	4.44875E-005	6	..........a	-327.64
	262	26.3	-1.80226E-001	8.13011E-009	0.00000E+000	-1.80000E-001	4.19541E-005	6	..........a	-327.64
	263	26.4	-1.70200E-001	8.60012E-009	0.00000E+000	-1.70000E-001	4.60541E-005	6	..........a	-327.64
	264	26.5	-1.60253E-001	9.03981E-009	0.00000E+000	-1.60000E-001	4.42875E-005	6	..........a	-327.64
	265	26.6	-1.50226E-001	9.49401E-009	0.00000E+000	-1.50000E-001	4.16541E-005	6	..........a	-327.64
	266	26.7	-1.40278E-001	9.88426E-009	0.00000E+000	-1.40000E-001	3.63541E-005	6	..........a	-327.64
	267	26.8	-1.30223E-001	1.02906E-008	0.00000E+000	-1.30000E-001	4.40208E-005	6	..........a	-327.64
	268	26.9	-1.20213E-001	1.07198E-008	0.00000E+000	-1.20000E-001	4.60208E-005	6	..........a	-327.64
	269	27	-1.10191E-001	1.10686E-008	0.00000E+000	-1.10000E-001	4.10208E-005	6	..........a	-327.64
	270	27.1	-1.00240E-001	1.14621E-008	0.00000E+000	-1.00000E-001	4.21541E-005	6	..........a	-327.64
	271	27.2	-9.02127E-002	1.18689E-008	0.00000E+000	-9.00000E-002	4.21541E-005	6	..........a	-327.64
	272	27.3	-8.02680E-002	1.22684E-008	0.00000E+000	-8.00000E-002	4.38208E-005	6	..........a	-327.64
	273	27.4	-7.02090E-002	1.26463E-008	0.00000E+000	-7.00000E-002	4.04541E-005	6	..........a	-327.64
	274	27.5	-6.02235E-002	1.29734E-008	0.00000E+000	-6.00000E-002	3.80875E-005	6	..........a	-327.64
	275	27.6	-5.02453E-002	1.32862E-008	0.00000E+000	-5.00000E-002	3.80208E-005	6	..........a	-327.64
	276	27.7	-4.02229E-002	1.36083E-008	0.00000E+000	-4.00000E-002	3.63208E-005	6	..........a	-327.64
	277	27.8	-3.02392E-002	1.39468E-008	0.00000E+000	-3.00000E-002	4.07541E-005	6	..........a	-327.64
	278	27.9	-2.02033E-002	1.42707E-008	0.00000E+000	-2.00000E-002	4.05875E-005	6	..........a	-327.64
	279	28	-1.02248E-002	1.45462E-008	0.00000E+000	-1.00000E-002	4.70875E-005	6	..........a	-327.64
	280	28.1	-2.47091E-004	1.48519E-008	0.00000E+000	7.45058E-009	4.56541E-005	6	..........a	-327.64
	281	28.2	9.91232E-003	1.51518E-008	0.00000E+000	1.00000E-002	4.29875E-005	6	..........a	-327.64
	282	28.3	1.98888E-002	1.54563E-008	0.00000E+000	2.00000E-002	4.65875E-005	6	..........a	-327.64
	283	28.4	2.99086E-002	1.57475E-008	0.00000E+000	3.00000E-002	4.48208E-005	6	..........a	-327.64
	284	28.5	3.98407E-002	1.60197E-008	0.00000E+000	4.00000E-002	4.11875E-005	6	..........a	-327.64
	285	28.6	4.99146E-002	1.63190E-008	0.00000E+000	5.00000E-002	4.03541E-005	6	..........a	-327.64
	286	28.7	5.99205E-002	1.66105E-008	0.00000E+000	6.00000E-002	3.94541E-005	6	..........a	-327.64
	287	28.8	6.98906E-002	1.68462E-008	0.00000E+000	7.00000E-002	3.69875E-005	6	..........a	-327.64
	288	28.9	7.98867E-002	1.71240E-008	0.00000E+000	8.00000E-002	4.41208E-005	6	..........a	-327.64
	289	29	8.98842E-002	1.73844E-008	0.00000E+000	9.00000E-002	4.28541E-005	6	..........a	-327.64
	290	29.1	9.99054E-002	1.76530E-008	0.00000E+000	1.00000E-001	4.10208E-005	6	..........a	-327.64
	291	29.2	1.09892E-001	1.78802E-008	0.00000E+000	1.10000E-001	4.37875E-005	6	..........a	-327.64
	292	29.3	1.19850E-001	1.81448E-008	0.00000E+000	1.20000E-001	3.60208E-005	6	..........a	-327.64
	293	29.4	1.29897E-001	1.83739E-008	0.00000E+000	1.30000E-001	3.76208E-005	6	..........a	-327.64
	294	29.5	1.39932E-001	1.86282E-008	0.00000E+000	1.40000E-001	3.76875E-005	6	..........a	-327.64
	295	29.6	1.49898E-001	1.88516E-008	0.00000E+000	1.50000E-001	3.78875E-005	6	..........a	-327.64
	296	29.7	1.59878E-001	1.90969E-008	0.00000E+000	1.60000E-001	3.96208E-005	6	..........a	-327.64
	297	29.8	1.69902E-001	1.93155E-008	0.00000E+000	1.70000E-001	4.35875E-005	6	..........a	-327.64
	298	29.9	1.79894E-001	1.95340E-008	0.00000E+000	1.80000E-001	3.99875E-005	6	..........a	-327.64
	299	30	1.89911E-001	1.97676E-008	0.00000E+000	1.90000E-001	3.64208E-005	6	..........a	-327.64
	300	30.1	1.99873E-001	1.99387E-008	0.00000E+000	2.00000E-001	3.94541E-005	6	..........a	-327.64
	301	30.2	2.09897E-001	2.01502E-008	0.00000E+000	2.10000E-001	4.36875E-005	6	..........a	-327.64
	302	30.3	2.19892E-001	2.03548E-008	0.00000E+000	2.20000E-001	3.96875E-005	6	..........a	-327.64
	303	30.4	2.29891E-001	2.05224E-008	0.00000E+000	2.30000E-001	4.14875E-005	6	..........a	-327.64
	304	30.5	2.39906E-001	2.06826E-008	0.00000E+000	2.40000E-001	3.95541E-005	6	..........a	-327.64
	305	30.6	2.49912E-001	2.08582E-008	0.00000E+000	2.50000E-001	3.69541E-005	6	..........a	-327.64
	306	30.7	2.59906E-001	2.10438E-008	0.00000E+000	2.60000E-001	3.49541E-005	6	..........a	-327.64
	307	30.8	2.69865E-001	2.11352E-008	0.00000E+000	2.70000E-001	3.85541E-005	6	..........a	-327.64
	308	30.9	2.79873E-001	2.13245E-008	0.00000E+000	2.80000E-001	4.43208E-005	6	..........a	-327.64
	309	31	2.89915E-001	2.14538E-008	0.00000E+000	2.90000E-001	4.06875E-005	6	..........a	-327.64
	310	31.1	2.99913E-001	2.15743E-008	0.00000E+000	3.00000E-001	4.07208E-005	6	..........a	-327.64
	311	31.2	3.09883E-001	2.17008E-008	0.00000E+000	3.10000E-001	4.25541E-005	6	..........a	-327.64
	312	31.3	3.19892E-001	2.18188E-008	0.00000E+000	3.20000E-001	3.99541E-005	6	..........a	-327.64
	313	31.4	3.29893E-001	2.19216E-008	0.00000E+000	3.30000E-001	4.41541E-005	6	..........a	-327.64
	314	31.5	3.39915E-001	2.20620E-008	0.00000E+000	3.40000E-001	3.90208E-005	6	..........a	-327.64
	315	31.6	3.49925E-001	2.21235E-008	0.00000E+000	3.50000E-001	3.99541E-005	6	..........a	-327.64
	316	31.7	3.59859E-001	2.22556E-008	0.00000E+000	3.60000E-001	4.28541E-005	6	..........a	-327.64
	317	31.8	3.69907E-001	2.23482E-008	0.00000E+000	3.70000E-001	4.40541E-005	6	..........a	-327.64
	318	31.9	3.79898E-001	2.24438E-008	0.00000E+000	3.80000E-001	4.31208E-005	6	..........a	-327.64
	319	32	3.89902E-001	2.25200E-008	0.00000E+000	3.90000E-001	3.76541E-005	6	..........a	-327.64
	320	32.1	3.99863E-001	2.26091E-008	0.00000E+000	4.00000E-001	3.51875E-005	6	..........a	-327.64
	321	32.2	4.09939E-001	2.27134E-008	0.00000E+000	4.10000E-001	3.88541E-005	6	..........a	-327.64
	322	32.3	4.19985E-001	2.28155E-008	0.00000E+000	4.20000E-001	4.00541E-005	6	..........a	-327.64
	323	32.4	4.29945E-001	2.29172E-008	0.00000E+000	4.30000E-001	4.00541E-005	6	..........a	-327.64
	324	32.5	4.39955E-001	2.30071E-008	0.00000E+000	4.40000E-001	3.66875E-005	6	..........a	-327.64
	325	32.6	4.49951E-001	2.31056E-008	0.00000E+000	4.50000E-001	3.50875E-005	6	..........a	-327.64
	326	32.7	4.59974E-001	2.32035E-008	0.00000E+000	4.60000E-001	3.75208E-005	6	..........a	-327.64
	327	32.8	4.69958E-001	2.32894E-008	0.00000E+000	4.70000E-001	3.56208E-005	6	..........a	-327.64
	328	32.9	4.79940E-001	2.33830E-008	0.00000E+000	4.80000E-001	3.94875E-005	6	..........a	-327.64
	329	33	4.89962E-001	2.34957E-008	0.00000E+000	4.90000E-001	4.01875E-005	6	..........a	-327.64
	330	33.1	4.99928E-001	2.36148E-008	0.00000E+000	5.00000E-001	3.57875E-005	6	..........a	-327.64
	331	33.2	5.09948E-001	2.37046E-008	0.00000E+000	5.10000E-001	3.38208E-005	6	..........a	-327.64
	332	33.3	5.19948E-001	2.38607E-008	0.00000E+000	5.20000E-001	3.93541E-005	6	..........a	-327.64
	333	33.4	5.29949E-001	2.39783E-008	0.00000E+000	5.30000E-001	4.08541E-005	6	..........a	-327.64
	334	33.5	5.39967E-001	2.41514E-008	0.00000E+000	5.40000E-001	3.88208E-005	6	..........a	-327.64
	335	33.6	5.49971E-001	2.43168E-008	0.00000E+000	5.50000E-001	3.48875E-005	6	..........a	-327.64
	336	33.7	5.59950E-001	2.44488E-008	0.00000E+000	5.60000E-001	3.47541E-005	6	..........a	-327.64
	337	33.8	5.69960E-001	2.45733E-008	0.00000E+000	5.70000E-001	3.94541E-005	6	..........a	-327.64
	338	33.9	5.79983E-001	2.47063E-008	0.00000E+000	5.80000E-001	3.80875E-005	6	..........a	-327.64
	339	34	5.89948E-001	2.48603E-008	0.00000E+000	5.90000E-001	3.68208E-005	6	..........a	-327.64
	340	34.1	5.99968E-001	2.50857E-008	0.00000E+000	6.00000E-001	3.23208E-005	6	..........a	-327.64
	341	34.2	6.09958E-001	2.52499E-008	0.00000E+000	6.10000E-001	4.14541E-005	6	..........a	-327.64
	342	34.3	6.19967E-001	2.54638E-008	0.00000E+000	6.20000E-001	3.69541E-005	6	..........a	-327.64
	343	34.4	6.29955E-001	2.56896E-008	0.00000E+000	6.30000E-001	3.31208E-005	6	..........a	-327.64
	344	34.5	6.39930E-001	2.59274E-008	0.00000E+000	6.40000E-001	4.02541E-005	6	..........a	-327.64
	345	34.6	6.49974E-001	2.61632E-008	0.00000E+000	6.50000E-001	3.97208E-005	6	..........a	-327.64
	346	34.7	6.59975E-001	2.64781E-008	0.00000E+000	6.60000E-001	3.72875E-005	6	..........a	-327.64
	347	34.8	6.69949E-001	2.67809E-008	0.00000E+000	6.70000E-001	3.67208E-005	6	..........a	-327.64
	348	34.9	6.79908E-001	2.71359E-008	0.00000E+000	6.80000E-001	3.70875E-005	6	..........a	-327.64
	349	35	6.89955E-001	2.75023E-008	0.00000E+000	6.90000E-001	3.89208E-005	6	..........a	-327.64
	350	35.1	6.99990E-001	2.79156E-008	0.00000E+000	7.00000E-001	3.79541E-005	6	..........a	-327.64
	351	35.2	7.09962E-001	2.83821E-008	0.00000E+000	7.10000E-001	3.83541E-005	6	..........a	-327.64
	352	35.3	7.19930E-001	2.89164E-008	0.00000E+000	7.20000E-001	4.06208E-005	6	..........a	-327.64
	353	35.4	7.29934E-001	2.95117E-008	0.00000E+000	7.30000E-001	3.58875E-005	6	..........a	-327.64
	354	35.5	7.39964E-001	3.00554E-008	0.00000E+000	7.40000E-001	4.21541E-005	6	..........a	-327.64
	355	35.6	7.49963E-001	3.07447E-008	0.00000E+000	7.50000E-001	4.31875E-005	6	..........a	-327.64
	356	35.7	7.59993E-001	3.15070E-008	0.00000E+000	7.60000E-001	4.11208E-005	6	..........a	-327.64
	357	35.8	7.69946E-001	3.23136E-008	0.00000E+000	7.70000E-001	3.99541E-005	6	..........a	-327.64
	358	35.9	7.79978E-001	3.32073E-008	0.00000E+000	7.80000E-001	3.99208E-005	6	..........a	-327.64
	359	36	7.89943E-001	3.42022E-008	0.00000E+000	7.90000E-001	4.05875E-005	6	..........a	-327.64
	360	36.1	7.99957E-001	3.52724E-008	0.00000E+000	8.00000E-001	4.02875E-005	6	..........a	-327.64
	361	36.2	7.89979E-001	1.69511E-008	0.00000E+000	7.90000E-001	3.72541E-005	6	..........a	-327.64
	362	36.3	7.80015E-001	1.14547E-008	0.00000E+000	7.80000E-001	3.79875E-005	6	..........a	-327.64
	363	36.4	7.69979E-001	7.63494E-009	0.00000E+000	7.70000E-001	3.59875E-005	6	..........a	-327.64
	364	36.5	7.60029E-001	4.82768E-009	0.00000E+000	7.60000E-001	3.78208E-005	6	..........a	-327.64
	365	36.6	7.49996E-001	2.67701E-009	0.00000E+000	7.50000E-001	4.10208E-005	6	..........a	-327.64
	366	36.7	7.39998E-001	9.96517E-010	0.00000E+000	7.40000E-001	3.63541E-005	6	..........a	-327.64
	367	36.8	7.29963E-001	-3.55714E-010	0.00000E+000	7.30000E-001	3.64875E-005	6	..........a	-327.64
	368	36.9	7.19965E-001	-1.64459E-009	0.00000E+000	7.20000E-001	3.74541E-005	6	..........a	-327.64
	369	37	7.09995E-001	-2.45820E-009	0.00000E+000	7.10000E-001	3.77541E-005	6	..........a	-327.64
[...]
	1204	120.5	7.60032E-001	3.94118E-009	0.00000E+000	7.60000E-001	3.51875E-005	6	..........a	-327.64
	1205	120.6	7.50004E-001	1.41684E-009	0.00000E+000	7.50000E-001	3.16541E-005	6	..........a	-327.64
	1206	120.7	7.40011E-001	-5.58506E-010	0.00000E+000	7.40000E-001	2.81875E-005	6	..........a	-327.64
	1207	120.8	7.29972E-001	-2.12980E-009	0.00000E+000	7.30000E-001	3.38875E-005	6	..........a	-327.64
	1208	120.9	7.19975E-001	-3.40691E-009	0.00000E+000	7.20000E-001	3.86541E-005	6	..........a	-327.64
	1209	121	7.10002E-001	-4.48016E-009	0.00000E+000	7.10000E-001	3.88541E-005	6	..........a	-327.64
	1210	121.1	7.00036E-001	-5.30067E-009	0.00000E+000	7.00000E-001	3.58875E-005	6	..........a	-327.64
	1211	121.2	6.90002E-001	-6.08696E-009	0.00000E+000	6.90000E-001	3.18541E-005	6	..........a	-327.64
	1212	121.3	6.79961E-001	-6.69314E-009	0.00000E+000	6.80000E-001	3.64875E-005	6	..........a	-327.64
	1213	121.4	6.69997E-001	-7.29142E-009	0.00000E+000	6.70000E-001	3.59541E-005	6	..........a	-327.64
	1214	121.5	6.60029E-001	-7.77916E-009	0.00000E+000	6.60000E-001	3.58541E-005	6	..........a	-327.64
	1215	121.6	6.50021E-001	-8.21026E-009	0.00000E+000	6.50000E-001	3.23541E-005	6	..........a	-327.64
	1216	121.7	6.39981E-001	-8.60981E-009	0.00000E+000	6.40000E-001	3.63875E-005	6	..........a	-327.64
	1217	121.8	6.29997E-001	-8.97571E-009	0.00000E+000	6.30000E-001	2.47875E-005	6	..........a	-327.64
	1218	121.9	6.20014E-001	-9.32405E-009	0.00000E+000	6.20000E-001	2.91541E-005	6	..........a	-327.64
	1219	122	6.09999E-001	-9.63924E-009	0.00000E+000	6.10000E-001	2.70875E-005	6	..........a	-327.64
	1220	122.1	6.00013E-001	-9.95107E-009	0.00000E+000	6.00000E-001	2.96208E-005	6	..........a	-327.64
	1221	122.2	5.89989E-001	-1.02482E-008	0.00000E+000	5.90000E-001	3.10541E-005	6	..........a	-327.64
	1222	122.3	5.80025E-001	-1.05060E-008	0.00000E+000	5.80000E-001	3.22208E-005	6	..........a	-327.64
	1223	122.4	5.70003E-001	-1.07479E-008	0.00000E+000	5.70000E-001	3.10875E-005	6	..........a	-327.64
	1224	122.5	5.59995E-001	-1.09837E-008	0.00000E+000	5.60000E-001	3.41875E-005	6	..........a	-327.64
	1225	122.6	5.50011E-001	-1.12647E-008	0.00000E+000	5.50000E-001	3.04875E-005	6	..........a	-327.64
	1226	122.7	5.40015E-001	-1.14509E-008	0.00000E+000	5.40000E-001	2.37208E-005	6	..........a	-327.64
	1227	122.8	5.29989E-001	-1.16787E-008	0.00000E+000	5.30000E-001	2.85541E-005	6	..........a	-327.64
	1228	122.9	5.19990E-001	-1.18625E-008	0.00000E+000	5.20000E-001	2.38875E-005	6	..........a	-327.64
	1229	123	5.09990E-001	-1.21073E-008	0.00000E+000	5.10000E-001	2.99541E-005	6	..........a	-327.64
	1230	123.1	4.99978E-001	-1.22668E-008	0.00000E+000	5.00000E-001	3.00875E-005	6	..........a	-327.64
	1231	123.2	4.90003E-001	-1.24484E-008	0.00000E+000	4.90000E-001	3.28875E-005	6	..........a	-327.64
	1232	123.3	4.79986E-001	-1.26566E-008	0.00000E+000	4.80000E-001	2.89208E-005	6	..........a	-327.64
	1233	123.4	4.70004E-001	-1.28265E-008	0.00000E+000	4.70000E-001	3.20541E-005	6	..........a	-327.64
	1234	123.5	4.60025E-001	-1.29911E-008	0.00000E+000	4.60000E-001	3.23208E-005	6	..........a	-327.64
	1235	123.6	4.49989E-001	-1.31527E-008	0.00000E+000	4.50000E-001	3.21208E-005	6	..........a	-327.64
	1236	123.7	4.39999E-001	-1.33264E-008	0.00000E+000	4.40000E-001	3.42208E-005	6	..........a	-327.64
	1237	123.8	4.29990E-001	-1.34891E-008	0.00000E+000	4.30000E-001	3.36875E-005	6	..........a	-327.64
	1238	123.9	4.20033E-001	-1.35684E-008	0.00000E+000	4.20000E-001	3.10208E-005	6	..........a	-327.64
	1239	124	4.09990E-001	-1.37542E-008	0.00000E+000	4.10000E-001	2.94541E-005	6	..........a	-327.64
	1240	124.1	3.99918E-001	-1.38790E-008	0.00000E+000	4.00000E-001	2.97541E-005	6	..........a	-327.64
	1241	124.2	3.89950E-001	-1.39993E-008	0.00000E+000	3.90000E-001	2.91208E-005	6	..........a	-327.64
	1242	124.3	3.79954E-001	-1.40925E-008	0.00000E+000	3.80000E-001	3.18875E-005	6	..........a	-327.64
	1243	124.4	3.69953E-001	-1.43241E-008	0.00000E+000	3.70000E-001	3.09541E-005	6	..........a	-327.64
	1244	124.5	3.59913E-001	-1.43757E-008	0.00000E+000	3.60000E-001	3.38875E-005	6	..........a	-327.64
	1245	124.6	3.49966E-001	-1.45386E-008	0.00000E+000	3.50000E-001	3.32875E-005	6	..........a	-327.64
	1246	124.7	3.39970E-001	-1.46685E-008	0.00000E+000	3.40000E-001	2.94541E-005	6	..........a	-327.64
	1247	124.8	3.29940E-001	-1.48422E-008	0.00000E+000	3.30000E-001	2.97208E-005	6	..........a	-327.64
	1248	124.9	3.19943E-001	-1.49181E-008	0.00000E+000	3.20000E-001	3.13875E-005	6	..........a	-327.64
	1249	125	3.09934E-001	-1.51386E-008	0.00000E+000	3.10000E-001	2.92875E-005	6	..........a	-327.64
	1250	125.1	2.99971E-001	-1.52326E-008	0.00000E+000	3.00000E-001	3.24541E-005	6	..........a	-327.64
	1251	125.2	2.89968E-001	-1.54201E-008	0.00000E+000	2.90000E-001	3.54875E-005	6	..........a	-327.64
	1252	125.3	2.79930E-001	-1.55493E-008	0.00000E+000	2.80000E-001	3.30208E-005	6	..........a	-327.64
	1253	125.4	2.69911E-001	-1.57249E-008	0.00000E+000	2.70000E-001	3.15541E-005	6	..........a	-327.64
	1254	125.5	2.59963E-001	-1.58845E-008	0.00000E+000	2.60000E-001	3.21541E-005	6	..........a	-327.64
	1255	125.6	2.49959E-001	-1.60689E-008	0.00000E+000	2.50000E-001	3.21208E-005	6	..........a	-327.64
	1256	125.7	2.39958E-001	-1.62192E-008	0.00000E+000	2.40000E-001	2.99541E-005	6	..........a	-327.64
	1257	125.8	2.29943E-001	-1.63703E-008	0.00000E+000	2.30000E-001	3.24541E-005	6	..........a	-327.64
	1258	125.9	2.19955E-001	-1.65370E-008	0.00000E+000	2.20000E-001	2.77541E-005	6	..........a	-327.64
	1259	126	2.09947E-001	-1.66902E-008	0.00000E+000	2.10000E-001	3.58875E-005	6	..........a	-327.64
	1260	126.1	1.99934E-001	-1.68640E-008	0.00000E+000	2.00000E-001	3.45541E-005	6	..........a	-327.64
	1261	126.2	1.89960E-001	-1.70375E-008	0.00000E+000	1.90000E-001	3.30875E-005	6	..........a	-327.64
	1262	126.3	1.79951E-001	-1.72298E-008	0.00000E+000	1.80000E-001	2.85875E-005	6	..........a	-327.64
	1263	126.4	1.69954E-001	-1.74094E-008	0.00000E+000	1.70000E-001	3.31875E-005	6	..........a	-327.64
	1264	126.5	1.59933E-001	-1.75404E-008	0.00000E+000	1.60000E-001	3.91541E-005	6	..........a	-327.64
	1265	126.6	1.49950E-001	-1.77073E-008	0.00000E+000	1.50000E-001	3.71541E-005	6	..........a	-327.64
	1266	126.7	1.39984E-001	-1.78793E-008	0.00000E+000	1.40000E-001	3.81541E-005	6	..........a	-327.64
	1267	126.8	1.29948E-001	-1.80439E-008	0.00000E+000	1.30000E-001	3.72875E-005	6	..........a	-327.64
	1268	126.9	1.19915E-001	-1.82041E-008	0.00000E+000	1.20000E-001	3.76208E-005	6	..........a	-327.64
	1269	127	1.09946E-001	-1.83413E-008	0.00000E+000	1.10000E-001	3.24208E-005	6	..........a	-327.64
	1270	127.1	9.99640E-002	-1.84541E-008	0.00000E+000	1.00000E-001	3.58875E-005	6	..........a	-327.64
	1271	127.2	8.99317E-002	-1.85986E-008	0.00000E+000	9.00000E-002	3.26875E-005	6	..........a	-327.64
	1272	127.3	7.99385E-002	-1.87673E-008	0.00000E+000	8.00000E-002	3.75208E-005	6	..........a	-327.64
	1273	127.4	6.99370E-002	-1.88959E-008	0.00000E+000	7.00000E-002	4.17875E-005	6	..........a	-327.64
	1274	127.5	5.99700E-002	-1.89963E-008	0.00000E+000	6.00000E-002	3.99541E-005	6	..........a	-327.64
	1275	127.6	4.99634E-002	-1.91971E-008	0.00000E+000	5.00000E-002	3.84208E-005	6	..........a	-327.64
	1276	127.7	3.98998E-002	-1.92935E-008	0.00000E+000	4.00000E-002	3.61875E-005	6	..........a	-327.64
	1277	127.8	2.99577E-002	-1.94585E-008	0.00000E+000	3.00000E-002	3.40541E-005	6	..........a	-327.64
	1278	127.9	1.99449E-002	-1.95365E-008	0.00000E+000	2.00000E-002	3.55208E-005	6	..........a	-327.64
	1279	128	9.95883E-003	-1.96652E-008	0.00000E+000	1.00000E-002	3.61208E-005	6	..........a	-327.64
	1280	128.1	-1.92532E-004	-1.97980E-008	0.00000E+000	7.45058E-009	3.64875E-005	6	..........a	-327.64
	1281	128.2	-1.01721E-002	-1.99248E-008	0.00000E+000	-1.00000E-002	2.97541E-005	6	..........a	-327.64
	1282	128.3	-2.01504E-002	-2.00330E-008	0.00000E+000	-2.00000E-002	3.21541E-005	6	..........a	-327.64
	1283	128.4	-3.01867E-002	-2.01899E-008	0.00000E+000	-3.00000E-002	3.36208E-005	6	..........a	-327.64
	1284	128.5	-4.01739E-002	-2.03140E-008	0.00000E+000	-4.00000E-002	2.91541E-005	6	..........a	-327.64
	1285	128.6	-5.01944E-002	-2.05024E-008	0.00000E+000	-5.00000E-002	3.06208E-005	6	..........a	-327.64
	1286	128.7	-6.01680E-002	-2.06811E-008	0.00000E+000	-6.00000E-002	3.00208E-005	6	..........a	-327.64
	1287	128.8	-7.01592E-002	-2.08682E-008	0.00000E+000	-7.00000E-002	3.04208E-005	6	..........a	-327.64
	1288	128.9	-8.02126E-002	-2.11162E-008	0.00000E+000	-8.00000E-002	2.97541E-005	6	..........a	-327.64
	1289	129	-9.01650E-002	-2.13038E-008	0.00000E+000	-9.00000E-002	2.97875E-005	6	..........a	-327.64
	1290	129.1	-1.00183E-001	-2.15589E-008	0.00000E+000	-1.00000E-001	3.23208E-005	6	..........a	-327.64
	1291	129.2	-1.10145E-001	-2.17627E-008	0.00000E+000	-1.10000E-001	2.99875E-005	6	..........a	-327.64
	1292	129.3	-1.20161E-001	-2.20111E-008	0.00000E+000	-1.20000E-001	2.80541E-005	6	..........a	-327.64
	1293	129.4	-1.30170E-001	-2.23387E-008	0.00000E+000	-1.30000E-001	3.30208E-005	6	..........a	-327.64
	1294	129.5	-1.40206E-001	-2.26043E-008	0.00000E+000	-1.40000E-001	3.16208E-005	6	..........a	-327.64
	1295	129.6	-1.50178E-001	-2.29406E-008	0.00000E+000	-1.50000E-001	3.10541E-005	6	..........a	-327.64
	1296	129.7	-1.60194E-001	-2.32775E-008	0.00000E+000	-1.60000E-001	3.23875E-005	6	..........a	-327.64
	1297	129.8	-1.70151E-001	-2.36478E-008	0.00000E+000	-1.70000E-001	3.40875E-005	6	..........a	-327.64
	1298	129.9	-1.80164E-001	-2.40333E-008	0.00000E+000	-1.80000E-001	2.96208E-005	6	..........a	-327.64
	1299	130	-1.90206E-001	-2.44201E-008	0.00000E+000	-1.90000E-001	2.80875E-005	6	..........a	-327.64
	1300	130.1	-2.00187E-001	-2.48460E-008	0.00000E+000	-2.00000E-001	3.16875E-005	6	..........a	-327.64
	1301	130.2	-2.10166E-001	-2.52687E-008	0.00000E+000	-2.10000E-001	3.33541E-005	6	..........a	-327.64
	1302	130.3	-2.20138E-001	-2.56997E-008	0.00000E+000	-2.20000E-001	3.69541E-005	6	..........a	-327.64
	1303	130.4	-2.30189E-001	-2.61592E-008	0.00000E+000	-2.30000E-001	3.69541E-005	6	..........a	-327.64
	1304	130.5	-2.40230E-001	-2.66337E-008	0.00000E+000	-2.40000E-001	3.36875E-005	6	..........a	-327.64
	1305	130.6	-2.50175E-001	-2.71225E-008	0.00000E+000	-2.50000E-001	3.01875E-005	6	..........a	-327.64
	1306	130.7	-2.60158E-001	-2.76172E-008	0.00000E+000	-2.60000E-001	3.21208E-005	6	..........a	-327.64
	1307	130.8	-2.70149E-001	-2.81158E-008	0.00000E+000	-2.70000E-001	2.93875E-005	6	..........a	-327.64
	1308	130.9	-2.80195E-001	-2.86132E-008	0.00000E+000	-2.80000E-001	2.91541E-005	6	..........a	-327.64
	1309	131	-2.90141E-001	-2.91497E-008	0.00000E+000	-2.90000E-001	2.84541E-005	6	..........a	-327.64
	1310	131.1	-3.00154E-001	-2.96905E-008	0.00000E+000	-3.00000E-001	2.81875E-005	6	..........a	-327.64
	1311	131.2	-3.10178E-001	-3.02568E-008	0.00000E+000	-3.10000E-001	3.18541E-005	6	..........a	-327.64
	1312	131.3	-3.20161E-001	-3.08339E-008	0.00000E+000	-3.20000E-001	2.85875E-005	6	..........a	-327.64
	1313	131.4	-3.30180E-001	-3.14228E-008	0.00000E+000	-3.30000E-001	3.16208E-005	6	..........a	-327.64
	1314	131.5	-3.40176E-001	-3.20218E-008	0.00000E+000	-3.40000E-001	3.40875E-005	6	..........a	-327.64
	1315	131.6	-3.50171E-001	-3.26205E-008	0.00000E+000	-3.50000E-001	3.14208E-005	6	..........a	-327.64
	1316	131.7	-3.60190E-001	-3.32554E-008	0.00000E+000	-3.60000E-001	3.10875E-005	6	..........a	-327.64
	1317	131.8	-3.70205E-001	-3.39294E-008	0.00000E+000	-3.70000E-001	2.99875E-005	6	..........a	-327.64
	1318	131.9	-3.80165E-001	-3.46291E-008	0.00000E+000	-3.80000E-001	3.03541E-005	6	..........a	-327.64
	1319	132	-3.90194E-001	-3.53347E-008	0.00000E+000	-3.90000E-001	2.79875E-005	6	..........a	-327.64
	1320	132.1	-4.00180E-001	-3.60871E-008	0.00000E+000	-4.00000E-001	3.77541E-005	6	..........a	-327.64
	1321	132.2	-4.10236E-001	-3.68557E-008	0.00000E+000	-4.10000E-001	3.77875E-005	6	..........a	-327.64
	1322	132.3	-4.20256E-001	-3.76531E-008	0.00000E+000	-4.20000E-001	3.83541E-005	6	..........a	-327.64
	1323	132.4	-4.30231E-001	-3.84713E-008	0.00000E+000	-4.30000E-001	3.63875E-005	6	..........a	-327.64
	1324	132.5	-4.40265E-001	-3.93084E-008	0.00000E+000	-4.40000E-001	3.18541E-005	6	..........a	-327.64
	1325	132.6	-4.50219E-001	-4.01505E-008	0.00000E+000	-4.50000E-001	3.37208E-005	6	..........a	-327.64
	1326	132.7	-4.60228E-001	-4.10446E-008	0.00000E+000	-4.60000E-001	3.76208E-005	6	..........a	-327.64
	1327	132.8	-4.70216E-001	-4.19873E-008	0.00000E+000	-4.70000E-001	4.33875E-005	6	..........a	-327.64
	1328	132.9	-4.80241E-001	-4.28608E-008	0.00000E+000	-4.80000E-001	4.12875E-005	6	..........a	-327.64
	1329	133	-4.90237E-001	-4.38182E-008	0.00000E+000	-4.90000E-001	4.24208E-005	6	..........a	-327.64
	1330	133.1	-5.00211E-001	-4.46962E-008	0.00000E+000	-5.00000E-001	3.82541E-005	6	..........a	-327.64
	1331	133.2	-5.10256E-001	-4.57214E-008	0.00000E+000	-5.10000E-001	4.27208E-005	6	..........a	-327.64
	1332	133.3	-5.20199E-001	-4.66353E-008	0.00000E+000	-5.20000E-001	3.62208E-005	6	..........a	-327.64
	1333	133.4	-5.30206E-001	-4.76579E-008	0.00000E+000	-5.30000E-001	3.24541E-005	6	..........a	-327.64
	1334	133.5	-5.40232E-001	-4.86930E-008	0.00000E+000	-5.40000E-001	3.81875E-005	6	..........a	-327.64
	1335	133.6	-5.50253E-001	-4.97520E-008	0.00000E+000	-5.50000E-001	3.79875E-005	6	..........a	-327.64
	1336	133.7	-5.60260E-001	-5.08323E-008	0.00000E+000	-5.60000E-001	4.08541E-005	6	..........a	-327.64
	1337	133.8	-5.70201E-001	-5.19903E-008	0.00000E+000	-5.70000E-001	3.88541E-005	6	..........a	-327.64
	1338	133.9	-5.80198E-001	-5.31509E-008	0.00000E+000	-5.80000E-001	3.94541E-005	6	..........a	-327.64
	1339	134	-5.90249E-001	-5.44235E-008	0.00000E+000	-5.90000E-001	4.30875E-005	6	..........a	-327.64
	1340	134.1	-6.00296E-001	-5.57864E-008	0.00000E+000	-6.00000E-001	1.12875E-003	6	..........a	-327.64
CURVE6	TABLE
	Pt	T	Vf	Im	Vu	Sig	Ach	IERange	Over	Temp
	#	s	V vs. Ref.	A	V	V	V	#	bits	deg C
	1341	134.2	-5.90292E-001	-3.86771E-008	0.00000E+000	-5.90000E-001	4.12208E-005	6	..........a	-327.64
	1342	134.3	-5.80248E-001	-3.51186E-008	0.00000E+000	-5.80000E-001	4.04541E-005	6	..........a	-327.64
	1343	134.4	-5.70256E-001	-3.24429E-008	0.00000E+000	-5.70000E-001	3.23875E-005	6	..........a	-327.64
	1344	134.5	-5.60310E-001	-3.00475E-008	0.00000E+000	-5.60000E-001	2.87208E-005	6	..........a	-327.64
	1345	134.6	-5.50319E-001	-2.78276E-008	0.00000E+000	-5.50000E-001	3.05541E-005	6	..........a	-327.64
	1346	134.7	-5.40290E-001	-2.56880E-008	0.00000E+000	-5.40000E-001	3.09875E-005	6	..........a	-327.64
	1347	134.8	-5.30268E-001	-2.35353E-008	0.00000E+000	-5.30000E-001	3.02875E-005	6	..........a	-327.64
	1348	134.9	-5.20263E-001	-2.12627E-008	0.00000E+000	-5.20000E-001	3.44208E-005	6	..........a	-327.64
	1349	135	-5.10321E-001	-1.91426E-008	0.00000E+000	-5.10000E-001	3.35208E-005	6	..........a	-327.64
	1350	135.1	-5.00279E-001	-1.69190E-008	0.00000E+000	-5.00000E-001	3.45208E-005	6	..........a	-327.64
	1351	135.2	-4.90308E-001	-1.46352E-008	0.00000E+000	-4.90000E-001	3.07875E-005	6	..........a	-327.64
	1352	135.3	-4.80306E-001	-1.25518E-008	0.00000E+000	-4.80000E-001	3.10875E-005	6	..........a	-327.64
	1353	135.4	-4.70294E-001	-1.04927E-008	0.00000E+000	-4.70000E-001	3.61875E-005	6	..........a	-327.64
	1354	135.5	-4.60300E-001	-8.48107E-009	0.00000E+000	-4.60000E-001	3.82541E-005	6	..........a	-327.64
	1355	135.6	-4.50282E-001	-6.60478E-009	0.00000E+000	-4.50000E-001	2.82541E-005	6	..........a	-327.64
	1356	135.7	-4.40329E-001	-4.93563E-009	0.00000E+000	-4.40000E-001	3.67541E-005	6	..........a	-327.64
	1357	135.8	-4.30294E-001	-3.36263E-009	0.00000E+000	-4.30000E-001	3.26208E-005	6	..........a	-327.64
	1358	135.9	-4.20322E-001	-2.00473E-009	0.00000E+000	-4.20000E-001	3.57875E-005	6	..........a	-327.64
	1359	136	-4.10298E-001	-7.98810E-010	0.00000E+000	-4.10000E-001	3.58208E-005	6	..........a	-327.64
	1360	136.1	-4.00237E-001	2.57133E-010	0.00000E+000	-4.00000E-001	3.44208E-005	6	..........a	-327.64
	1361	136.2	-3.90252E-001	1.17624E-009	0.00000E+000	-3.90000E-001	3.61875E-005	6	..........a	-327.64
	1362	136.3	-3.80219E-001	1.94193E-009	0.00000E+000	-3.80000E-001	3.38875E-005	6	..........a	-327.64
	1363	136.4	-3.70261E-001	2.71502E-009	0.00000E+000	-3.70000E-001	2.81541E-005	6	..........a	-327.64
	1364	136.5	-3.60245E-001	3.30323E-009	0.00000E+000	-3.60000E-001	3.39208E-005	6	..........a	-327.64
	1365	136.6	-3.50221E-001	3.88107E-009	0.00000E+000	-3.50000E-001	3.47541E-005	6	..........a	-327.64
	1366	136.7	-3.40222E-001	4.42566E-009	0.00000E+000	-3.40000E-001	3.32541E-005	6	..........a	-327.64
	1367	136.8	-3.30225E-001	4.81971E-009	0.00000E+000	-3.30000E-001	3.53208E-005	6	..........a	-327.64
	1368	136.9	-3.20208E-001	5.20612E-009	0.00000E+000	-3.20000E-001	3.88541E-005	6	..........a	-327.64
	1369	137	-3.10221E-001	5.47013E-009	0.00000E+000	-3.10000E-001	3.76208E-005	6	..........a	-327.64
	1370	137.1	-3.00195E-001	5.87052E-009	0.00000E+000	-3.00000E-001	3.47875E-005	6	..........a	-327.64
	1371	137.2	-2.90180E-001	6.26437E-009	0.00000E+000	-2.90000E-001	3.78208E-005	6	..........a	-327.64
	1372	137.3	-2.80243E-001	6.59523E-009	0.00000E+000	-2.80000E-001	3.44541E-005	6	..........a	-327.64
	1373	137.4	-2.70193E-001	7.11328E-009	0.00000E+000	-2.70000E-001	3.47208E-005	6	..........a	-327.64
	1374	137.5	-2.60200E-001	7.56518E-009	0.00000E+000	-2.60000E-001	3.73541E-005	6	..........a	-327.64
	1375	137.6	-2.50214E-001	8.11238E-009	0.00000E+000	-2.50000E-001	3.51875E-005	6	..........a	-327.64
	1376	137.7	-2.40277E-001	8.67167E-009	0.00000E+000	-2.40000E-001	3.54875E-005	6	..........a	-327.64
	1377	137.8	-2.30233E-001	9.25061E-009	0.00000E+000	-2.30000E-001	3.79875E-005	6	..........a	-327.64
	1378	137.9	-2.20182E-001	9.80654E-009	0.00000E+000	-2.20000E-001	3.52208E-005	6	..........a	-327.64
	1379	138	-2.10211E-001	1.04135E-008	0.00000E+000	-2.10000E-001	3.55208E-005	6	..........a	-327.64
	1380	138.1	-2.00237E-001	1.09857E-008	0.00000E+000	-2.00000E-001	3.48875E-005	6	..........a	-327.64
	1381	138.2	-1.90256E-001	1.15854E-008	0.00000E+000	-1.90000E-001	3.54208E-005	6	..........a	-327.64
	1382	138.3	-1.80214E-001	1.21640E-008	0.00000E+000	-1.80000E-001	3.64875E-005	6	..........a	-327.64
	1383	138.4	-1.70193E-001	1.27021E-008	0.00000E+000	-1.70000E-001	3.68208E-005	6	..........a	-327.64
	1384	138.5	-1.60244E-001	1.32771E-008	0.00000E+000	-1.60000E-001	3.49875E-005	6	..........a	-327.64
	1385	138.6	-1.50220E-001	1.38523E-008	0.00000E+000	-1.50000E-001	3.55541E-005	6	..........a	-327.64
	1386	138.7	-1.40258E-001	1.43712E-008	0.00000E+000	-1.40000E-001	3.52541E-005	6	..........a	-327.64
	1387	138.8	-1.30216E-001	1.48800E-008	0.00000E+000	-1.30000E-001	3.34875E-005	6	..........a	-327.64
	1388	138.9	-1.20205E-001	1.54044E-008	0.00000E+000	-1.20000E-001	3.52541E-005	6	..........a	-327.64
	1389	139	-1.10185E-001	1.58992E-008	0.00000E+000	-1.10000E-001	3.54208E-005	6	..........a	-327.64
	1390	139.1	-1.00227E-001	1.64416E-008	0.00000E+000	-1.00000E-001	3.07875E-005	6	..........a	-327.64
	1391	139.2	-9.02035E-002	1.68713E-008	0.00000E+000	-9.00000E-002	2.39541E-005	6	..........a	-327.64
	1392	139.3	-8.02532E-002	1.74006E-008	0.00000E+000	-8.00000E-002	3.10541E-005	6	..........a	-327.64
	1393	139.4	-7.01953E-002	1.78894E-008	0.00000E+000	-7.00000E-002	2.93541E-005	6	..........a	-327.64
	1394	139.5	-6.02115E-002	1.83448E-008	0.00000E+000	-6.00000E-002	3.23208E-005	6	..........a	-327.64
	1395	139.6	-5.02293E-002	1.88158E-008	0.00000E+000	-5.00000E-002	2.90541E-005	6	..........a	-327.64
	1396	139.7	-4.02133E-002	1.92712E-008	0.00000E+000	-4.00000E-002	3.16541E-005	6	..........a	-327.64
	1397	139.8	-3.02237E-002	1.97073E-008	0.00000E+000	-3.00000E-002	3.38875E-005	6	..........a	-327.64
	1398	139.9	-2.01912E-002	2.01735E-008	0.00000E+000	-2.00000E-002	3.14875E-005	6	..........a	-327.64
	1399	140	-1.02142E-002	2.06117E-008	0.00000E+000	-1.00000E-002	2.92541E-005	6	..........a	-327.64
	1400	140.1	-2.36556E-004	2.10485E-008	0.00000E+000	7.45058E-009	2.85875E-005	6	..........a	-327.64