File: Figure 1F/data/10M.DTA
EXPLAIN
TAG	CV
TITLE	LABEL	Cyclic Voltammetry	Test &Identifier
DATE	LABEL	8/24/2021	Date
TIME	LABEL	10:00:25	Time
NOTES	NOTES	1	&Notes...

PSTAT	PSTAT	REF600P-40007	Potentiostat
VINIT	POTEN	0.00000E+000	F	Initial &E (V)
VLIMIT1	POTEN	8.00000E-001	F	Scan Limit &1 (V)
VLIMIT2	POTEN	-6.00000E-001	F	Scan Limit &2 (V)
VFINAL	POTEN	0.00000E+000	F	Final &E (V)
SCANRATE	QUANT	9.99998E+001	&Scan Rate (mV/s)
STEPSIZE	QUANT	1.00000E+001	St&ep Size (mV)
CYCLES	IQUANT	5	C&ycles (#)
IMODE	SELECTOR	0	I/E Range &Mode
IRANGE	QUANT	3.00000E-001	&Max Current (mA)
AREA	QUANT	2.87000E-005	Electrode &Area (cm^2)
ELECTRODETYPE	SELECTOR	0	Electrode Type
STRIPPING	TOGGLE	F	Used for Stripping
POLARITY	TOGGLE	F	Signal Polarity
CONDIT	TWOPARAM	F	1.50000E+001	0.00000E+000	Conditionin&g	Time(s)	E(V)
DELAY	TWOPARAM	T	5.00000E+000	0.00000E+000	Init. De&lay	Time(s)	Stab.(mV/s)
EQDELAY	QUANT	5.00000E+000	Equil. &Time (s)
IRCOMP	SELECTOR	0	IRCom&p
PFCOR	QUANT	5.00000E+001	PF Corr. (ohm)
SAMPLINGMODE	SELECTOR	2	Sampling &Mode
OCVCURVE	TABLE	19
	Pt	T	Vf	Vm	Ach	Over	Temp
	#	s	V vs. Ref.	V	V	bits	deg C
	0	0.258333	1.19377E-001	1.19377E-001	1.15334E-003	..........a	-327.65
	1	0.516667	1.19380E-001	1.19545E-001	1.15287E-003	..........a	-327.65
	2	0.775	1.19402E-001	1.19812E-001	1.15647E-003	..........a	-327.65
	3	1.03333	1.19470E-001	1.20073E-001	1.15907E-003	..........a	-327.65
	4	1.29167	1.19607E-001	1.20356E-001	1.16027E-003	..........a	-327.65
	5	1.55	1.19809E-001	1.20610E-001	1.15814E-003	..........a	-327.65
	6	1.80833	1.20054E-001	1.20854E-001	1.16734E-003	..........a	-327.65
	7	2.06667	1.20316E-001	1.21084E-001	1.16520E-003	..........a	-327.65
	8	2.325	1.20575E-001	1.21323E-001	1.16687E-003	..........a	-327.65
	9	2.58333	1.20826E-001	1.21549E-001	1.15514E-003	..........a	-327.65
	10	2.84167	1.21067E-001	1.21808E-001	1.16194E-003	..........a	-327.65
	11	3.1	1.21305E-001	1.22064E-001	1.15700E-003	..........a	-327.65
	12	3.35833	1.21545E-001	1.22297E-001	1.15654E-003	..........a	-327.65
	13	3.61667	1.21789E-001	1.22530E-001	1.15680E-003	..........a	-327.65
	14	3.875	1.22034E-001	1.22775E-001	1.15794E-003	..........a	-327.65
	15	4.13333	1.22276E-001	1.23018E-001	1.16087E-003	..........a	-327.65
	16	4.39167	1.22517E-001	1.23256E-001	1.15494E-003	..........a	-327.65
	17	4.65	1.22757E-001	1.23495E-001	1.15587E-003	..........a	-327.65
	18	4.90833	1.22998E-001	1.23749E-001	1.16760E-003	..........a	-327.65
EOC	QUANT	0.1229976	Open Circuit (V)
PSTATMODEL	IQUANT	7	Pstat Model
PSTATSECTION	LABEL	REF600P-40007	Pstat Section
PSTATSERIALNO	LABEL	40007	Pstat Serial Number
CTRLMODE	IQUANT	1	Control Mode
ELECTROMETER	IQUANT	0	RE=0 or CS=1
IESTAB	IQUANT	2	I/E Stability
CASPEED	IQUANT	4	Control Amp Speed
CONVENTION	IQUANT	1	Current Convention
ICHRANGE	IQUANT	2	Ich Range
ICHRANGEMODE	TOGGLE	F	Ich Auto Range
ICHOFFSETENABLE	TOGGLE	F	Ich Offset Enable
ICHOFFSET	QUANT	0	Ich Offset (V)
ICHFILTER	IQUANT	2	Ich Filter
VCHRANGE	IQUANT	2	Vch Range
VCHRANGEMODE	TOGGLE	F	Vch Auto Range
VCHOFFSETENABLE	TOGGLE	F	Vch Offset Enable
VCHOFFSET	QUANT	0	Vch Offset (V)
VCHFILTER	IQUANT	2	Vch Filter
ACHRANGE	IQUANT	2	Ach Range
ACHOFFSETENABLE	TOGGLE	F	Ach Offset Enable
ACHOFFSET	QUANT	0	Ach Offset (V)
ACHFILTER	IQUANT	1	Ach Filter
IERANGELOWERLIMIT	IQUANT	1	I/E Range Lower Limit
IERANGEMODE	TOGGLE	T	I/E AutoRange
IERANGE	IQUANT	8	I/E Range
POSFEEDENABLE	TOGGLE	F	Positive Feedback IR Comp
POSFEEDRESISTANCE	QUANT	0	Positive Feedback Resistance (ohm)
ACHSELECT	IQUANT	0	Ach Select
SENSECABLEID	IQUANT	7	Sense Cable ID
PWRCABLEID	IQUANT	7	Power Cable ID
DCCALDATE	LABEL	8/21/2021	DC Calibration Date
ACCALDATE	LABEL	8/21/2021	AC Calibration Date
THERMOSELECT	IQUANT	1	Thermo Select
FRAMEWORKVERSION	LABEL	7.8.1	Framework Version
INSTRUMENTVERSION	LABEL	4.40	Instrument Version
CURVE1	TABLE
	Pt	T	Vf	Im	Vu	Sig	Ach	IERange	Over	Temp
	#	s	V vs. Ref.	A	V	V	V	#	bits	deg C
	0	0.1	8.61228E-005	1.67927E-007	0.00000E+000	7.45058E-009	1.13887E-003	8	..........a	-327.65
	1	0.2	1.01199E-002	1.98173E-008	0.00000E+000	1.00000E-002	1.16004E-003	7	......s...a	-327.65
	2	0.3	2.00832E-002	9.85831E-009	0.00000E+000	2.00000E-002	4.17369E-005	6	......s...a	-327.65
	3	0.4	3.00924E-002	1.05584E-008	0.00000E+000	3.00000E-002	1.14410E-003	6	..........a	-327.65
	4	0.5	4.00750E-002	1.13898E-008	0.00000E+000	4.00000E-002	4.52368E-005	6	..........a	-327.65
	5	0.6	5.00952E-002	1.21557E-008	0.00000E+000	5.00000E-002	4.46035E-005	6	..........a	-327.65
	6	0.7	6.01093E-002	1.29269E-008	0.00000E+000	6.00000E-002	4.02702E-005	6	..........a	-327.65
	7	0.8	7.00688E-002	1.36524E-008	0.00000E+000	7.00000E-002	4.32702E-005	6	..........a	-327.65
	8	0.9	8.00837E-002	1.44170E-008	0.00000E+000	8.00000E-002	4.27368E-005	6	..........a	-327.65
	9	1	9.00307E-002	1.51284E-008	0.00000E+000	9.00000E-002	4.20368E-005	6	..........a	-327.65
	10	1.1	1.00096E-001	1.58309E-008	0.00000E+000	1.00000E-001	4.34035E-005	6	..........a	-327.65
	11	1.2	1.10074E-001	1.65731E-008	0.00000E+000	1.10000E-001	5.31368E-005	6	..........a	-327.65
	12	1.3	1.20068E-001	1.72916E-008	0.00000E+000	1.20000E-001	4.96369E-005	6	..........a	-327.65
	13	1.4	1.30075E-001	1.80190E-008	0.00000E+000	1.30000E-001	4.71702E-005	6	..........a	-327.65
	14	1.5	1.40117E-001	1.87558E-008	0.00000E+000	1.40000E-001	4.70035E-005	6	..........a	-327.65
	15	1.6	1.50085E-001	1.94971E-008	0.00000E+000	1.50000E-001	4.48035E-005	6	..........a	-327.65
	16	1.7	1.60078E-001	2.02735E-008	0.00000E+000	1.60000E-001	4.76702E-005	6	..........a	-327.65
	17	1.8	1.70073E-001	2.10462E-008	0.00000E+000	1.70000E-001	4.83035E-005	6	..........a	-327.65
	18	1.9	1.80079E-001	2.18304E-008	0.00000E+000	1.80000E-001	5.07702E-005	6	..........a	-327.65
	19	2	1.90090E-001	2.26108E-008	0.00000E+000	1.90000E-001	4.85702E-005	6	..........a	-327.65
	20	2.1	2.00075E-001	2.34450E-008	0.00000E+000	2.00000E-001	4.20368E-005	6	..........a	-327.65
	21	2.2	2.10075E-001	2.42363E-008	0.00000E+000	2.10000E-001	4.71368E-005	6	..........a	-327.65
	22	2.3	2.20102E-001	2.50022E-008	0.00000E+000	2.20000E-001	4.98368E-005	6	..........a	-327.65
	23	2.4	2.30064E-001	2.57518E-008	0.00000E+000	2.30000E-001	4.20702E-005	6	..........a	-327.65
	24	2.5	2.40092E-001	2.64915E-008	0.00000E+000	2.40000E-001	4.13368E-005	6	..........a	-327.65
	25	2.6	2.50098E-001	2.71688E-008	0.00000E+000	2.50000E-001	4.11368E-005	6	..........a	-327.65
	26	2.7	2.60081E-001	2.78259E-008	0.00000E+000	2.60000E-001	4.18369E-005	6	..........a	-327.65
	27	2.8	2.70029E-001	2.83894E-008	0.00000E+000	2.70000E-001	4.49368E-005	6	..........a	-327.65
	28	2.9	2.80064E-001	2.89141E-008	0.00000E+000	2.80000E-001	4.70702E-005	6	..........a	-327.65
	29	3	2.90097E-001	2.93603E-008	0.00000E+000	2.90000E-001	4.41368E-005	6	..........a	-327.65
	30	3.1	3.00116E-001	2.97361E-008	0.00000E+000	3.00000E-001	4.13035E-005	6	..........a	-327.65
	31	3.2	3.10061E-001	3.00527E-008	0.00000E+000	3.10000E-001	3.77702E-005	6	..........a	-327.65
	32	3.3	3.20067E-001	3.03469E-008	0.00000E+000	3.20000E-001	4.47035E-005	6	..........a	-327.65
	33	3.4	3.30069E-001	3.05169E-008	0.00000E+000	3.30000E-001	4.15702E-005	6	..........a	-327.65
	34	3.5	3.40088E-001	3.06589E-008	0.00000E+000	3.40000E-001	3.75035E-005	6	..........a	-327.65
	35	3.6	3.50065E-001	3.06981E-008	0.00000E+000	3.50000E-001	3.98702E-005	6	..........a	-327.65
	36	3.7	3.60056E-001	3.07741E-008	0.00000E+000	3.60000E-001	4.64368E-005	6	..........a	-327.65
	37	3.8	3.70083E-001	3.07497E-008	0.00000E+000	3.70000E-001	4.25368E-005	6	..........a	-327.65
	38	3.9	3.80082E-001	3.06821E-008	0.00000E+000	3.80000E-001	4.14035E-005	6	..........a	-327.65
	39	4	3.90082E-001	3.05866E-008	0.00000E+000	3.90000E-001	4.13702E-005	6	..........a	-327.65
	40	4.1	4.00099E-001	3.04889E-008	0.00000E+000	4.00000E-001	3.90035E-005	6	..........a	-327.65
	41	4.2	4.10133E-001	3.03795E-008	0.00000E+000	4.10000E-001	3.94702E-005	6	..........a	-327.65
	42	4.3	4.20148E-001	3.02334E-008	0.00000E+000	4.20000E-001	4.47702E-005	6	..........a	-327.65
	43	4.4	4.30119E-001	3.01121E-008	0.00000E+000	4.30000E-001	4.10702E-005	6	..........a	-327.65
	44	4.5	4.40135E-001	2.99757E-008	0.00000E+000	4.40000E-001	3.89369E-005	6	..........a	-327.65
	45	4.6	4.50125E-001	2.98689E-008	0.00000E+000	4.50000E-001	4.13702E-005	6	..........a	-327.65
	46	4.7	4.60162E-001	2.97570E-008	0.00000E+000	4.60000E-001	4.61035E-005	6	..........a	-327.65
	47	4.8	4.70132E-001	2.96599E-008	0.00000E+000	4.70000E-001	3.92035E-005	6	..........a	-327.65
	48	4.9	4.80121E-001	2.95789E-008	0.00000E+000	4.80000E-001	3.84702E-005	6	..........a	-327.65
	49	5	4.90150E-001	2.95411E-008	0.00000E+000	4.90000E-001	4.27702E-005	6	..........a	-327.65
	50	5.1	5.00110E-001	2.94510E-008	0.00000E+000	5.00000E-001	4.91702E-005	6	..........a	-327.65
	51	5.2	5.10121E-001	2.94174E-008	0.00000E+000	5.10000E-001	4.59035E-005	6	..........a	-327.65
	52	5.3	5.20123E-001	2.94268E-008	0.00000E+000	5.20000E-001	4.62702E-005	6	..........a	-327.65
	53	5.4	5.30126E-001	2.94171E-008	0.00000E+000	5.30000E-001	4.68369E-005	6	..........a	-327.65
	54	5.5	5.40144E-001	2.94263E-008	0.00000E+000	5.40000E-001	4.28035E-005	6	..........a	-327.65
	55	5.6	5.50145E-001	2.94428E-008	0.00000E+000	5.50000E-001	4.19368E-005	6	..........a	-327.65
	56	5.7	5.60127E-001	2.94650E-008	0.00000E+000	5.60000E-001	4.44368E-005	6	..........a	-327.65
	57	5.8	5.70153E-001	2.95038E-008	0.00000E+000	5.70000E-001	4.47035E-005	6	..........a	-327.65
	58	5.9	5.80174E-001	2.95469E-008	0.00000E+000	5.80000E-001	4.15368E-005	6	..........a	-327.65
	59	6	5.90123E-001	2.96049E-008	0.00000E+000	5.90000E-001	4.54035E-005	6	..........a	-327.65
	60	6.1	6.00144E-001	2.97104E-008	0.00000E+000	6.00000E-001	4.29035E-005	6	..........a	-327.65
	61	6.2	6.10141E-001	2.97951E-008	0.00000E+000	6.10000E-001	4.74702E-005	6	..........a	-327.65
	62	6.3	6.20149E-001	2.99118E-008	0.00000E+000	6.20000E-001	4.35035E-005	6	..........a	-327.65
	63	6.4	6.30125E-001	3.00450E-008	0.00000E+000	6.30000E-001	4.74702E-005	6	..........a	-327.65
	64	6.5	6.40110E-001	3.02381E-008	0.00000E+000	6.40000E-001	4.94702E-005	6	t.........a	-327.65
	65	6.6	6.50161E-001	3.04233E-008	0.00000E+000	6.50000E-001	4.58702E-005	6	..........a	-327.65
	66	6.7	6.60136E-001	3.06377E-008	0.00000E+000	6.60000E-001	4.48035E-005	6	..........a	-327.65
	67	6.8	6.70122E-001	3.09320E-008	0.00000E+000	6.70000E-001	4.67035E-005	6	..........a	-327.65
	68	6.9	6.80098E-001	3.12861E-008	0.00000E+000	6.80000E-001	4.74702E-005	6	..........a	-327.65
	69	7	6.90138E-001	3.16524E-008	0.00000E+000	6.90000E-001	4.40035E-005	6	..........a	-327.65
	70	7.1	7.00161E-001	3.20613E-008	0.00000E+000	7.00000E-001	4.60035E-005	6	..........a	-327.65
	71	7.2	7.10135E-001	3.25427E-008	0.00000E+000	7.10000E-001	4.88035E-005	6	..........a	-327.65
	72	7.3	7.20110E-001	3.30793E-008	0.00000E+000	7.20000E-001	4.86368E-005	6	..........a	-327.65
	73	7.4	7.30074E-001	3.37273E-008	0.00000E+000	7.30000E-001	4.26368E-005	6	..........a	-327.65
	74	7.5	7.40122E-001	3.44552E-008	0.00000E+000	7.40000E-001	4.99368E-005	6	..........a	-327.65
	75	7.6	7.50131E-001	3.52831E-008	0.00000E+000	7.50000E-001	5.03368E-005	6	..........a	-327.65
	76	7.7	7.60138E-001	3.62440E-008	0.00000E+000	7.60000E-001	4.60368E-005	6	..........a	-327.65
	77	7.8	7.70114E-001	3.73164E-008	0.00000E+000	7.70000E-001	4.99702E-005	6	..........a	-327.65
	78	7.9	7.80150E-001	3.84934E-008	0.00000E+000	7.80000E-001	4.51035E-005	6	..........a	-327.65
	79	8	7.90124E-001	3.98590E-008	0.00000E+000	7.90000E-001	4.59035E-005	6	..........a	-327.65
	80	8.1	8.00136E-001	4.13798E-008	0.00000E+000	8.00000E-001	1.14267E-003	6	..........a	-327.65
	81	8.2	7.90166E-001	1.11304E-008	0.00000E+000	7.90000E-001	4.01035E-005	6	..........a	-327.65
	82	8.3	7.80193E-001	5.52587E-009	0.00000E+000	7.80000E-001	4.35368E-005	6	..........a	-327.65
	83	8.4	7.70158E-001	1.79227E-009	0.00000E+000	7.70000E-001	4.69368E-005	6	..........a	-327.65
	84	8.5	7.60187E-001	-9.15221E-010	0.00000E+000	7.60000E-001	4.89035E-005	6	..........a	-327.65
	85	8.6	7.50182E-001	-2.99240E-009	0.00000E+000	7.50000E-001	4.99368E-005	6	..........a	-327.65
	86	8.7	7.40174E-001	-4.61504E-009	0.00000E+000	7.40000E-001	5.24702E-005	6	..........a	-327.65
	87	8.8	7.30112E-001	-5.91202E-009	0.00000E+000	7.30000E-001	5.02702E-005	6	..........a	-327.65
	88	8.9	7.20158E-001	-6.98170E-009	0.00000E+000	7.20000E-001	5.59368E-005	6	..........a	-327.65
	89	9	7.10188E-001	-7.85299E-009	0.00000E+000	7.10000E-001	5.54035E-005	6	..........a	-327.65
	90	9.1	7.00209E-001	-8.57444E-009	0.00000E+000	7.00000E-001	4.91368E-005	6	..........a	-327.65
	91	9.2	6.90177E-001	-9.21966E-009	0.00000E+000	6.90000E-001	5.10369E-005	6	..........a	-327.65
	92	9.3	6.80143E-001	-9.76909E-009	0.00000E+000	6.80000E-001	4.91368E-005	6	..........a	-327.65
	93	9.4	6.70169E-001	-1.02502E-008	0.00000E+000	6.70000E-001	4.73035E-005	6	..........a	-327.65
	94	9.5	6.60182E-001	-1.06657E-008	0.00000E+000	6.60000E-001	4.96702E-005	6	..........a	-327.65
	95	9.6	6.50208E-001	-1.10120E-008	0.00000E+000	6.50000E-001	4.77702E-005	6	..........a	-327.65
	96	9.7	6.40155E-001	-1.13647E-008	0.00000E+000	6.40000E-001	4.37369E-005	6	..........a	-327.65
	97	9.8	6.30173E-001	-1.16358E-008	0.00000E+000	6.30000E-001	4.13702E-005	6	..........a	-327.65
	98	9.9	6.20197E-001	-1.19022E-008	0.00000E+000	6.20000E-001	4.61035E-005	6	..........a	-327.65
	99	10	6.10186E-001	-1.21072E-008	0.00000E+000	6.10000E-001	4.89368E-005	6	..........a	-327.65
	100	10.1	6.00194E-001	-1.23466E-008	0.00000E+000	6.00000E-001	4.43368E-005	6	..........a	-327.65
	101	10.2	5.90168E-001	-1.25224E-008	0.00000E+000	5.90000E-001	5.11702E-005	6	..........a	-327.65
	102	10.3	5.80241E-001	-1.27130E-008	0.00000E+000	5.80000E-001	4.59702E-005	6	..........a	-327.65
	103	10.4	5.70203E-001	-1.28667E-008	0.00000E+000	5.70000E-001	4.65368E-005	6	..........a	-327.65
	104	10.5	5.60178E-001	-1.30282E-008	0.00000E+000	5.60000E-001	4.75369E-005	6	..........a	-327.65
	105	10.6	5.50200E-001	-1.31658E-008	0.00000E+000	5.50000E-001	4.71368E-005	6	..........a	-327.65
	106	10.7	5.40199E-001	-1.33040E-008	0.00000E+000	5.40000E-001	4.56702E-005	6	..........a	-327.65
	107	10.8	5.30161E-001	-1.34469E-008	0.00000E+000	5.30000E-001	4.18035E-005	6	..........a	-327.65
	108	10.9	5.20174E-001	-1.35609E-008	0.00000E+000	5.20000E-001	4.45368E-005	6	..........a	-327.65
	109	11	5.10172E-001	-1.37041E-008	0.00000E+000	5.10000E-001	4.92702E-005	6	..........a	-327.65
	110	11.1	5.00155E-001	-1.37871E-008	0.00000E+000	5.00000E-001	4.78702E-005	6	..........a	-327.65
	111	11.2	4.90194E-001	-1.39000E-008	0.00000E+000	4.90000E-001	4.51702E-005	6	..........a	-327.65
	112	11.3	4.80166E-001	-1.40003E-008	0.00000E+000	4.80000E-001	5.07368E-005	6	..........a	-327.65
	113	11.4	4.70180E-001	-1.40939E-008	0.00000E+000	4.70000E-001	4.95368E-005	6	..........a	-327.65
	114	11.5	4.60213E-001	-1.41771E-008	0.00000E+000	4.60000E-001	5.13702E-005	6	..........a	-327.65
	115	11.6	4.50151E-001	-1.42598E-008	0.00000E+000	4.50000E-001	5.15035E-005	6	..........a	-327.65
	116	11.7	4.40177E-001	-1.43527E-008	0.00000E+000	4.40000E-001	5.22035E-005	6	..........a	-327.65
	117	11.8	4.30159E-001	-1.44123E-008	0.00000E+000	4.30000E-001	4.65702E-005	6	..........a	-327.65
	118	11.9	4.20196E-001	-1.44982E-008	0.00000E+000	4.20000E-001	4.62368E-005	6	..........a	-327.65
	119	12	4.10182E-001	-1.45691E-008	0.00000E+000	4.10000E-001	5.44702E-005	6	..........a	-327.65
	120	12.1	4.00154E-001	-1.46276E-008	0.00000E+000	4.00000E-001	4.97368E-005	6	..........a	-327.65
	121	12.2	3.90125E-001	-1.46994E-008	0.00000E+000	3.90000E-001	4.64368E-005	6	..........a	-327.65
	122	12.3	3.80138E-001	-1.47727E-008	0.00000E+000	3.80000E-001	5.01702E-005	6	..........a	-327.65
	123	12.4	3.70136E-001	-1.48177E-008	0.00000E+000	3.70000E-001	5.03035E-005	6	..........a	-327.65
	124	12.5	3.60104E-001	-1.48752E-008	0.00000E+000	3.60000E-001	5.27702E-005	6	..........a	-327.65
	125	12.6	3.50115E-001	-1.49315E-008	0.00000E+000	3.50000E-001	4.93702E-005	6	..........a	-327.65
	126	12.7	3.40139E-001	-1.49949E-008	0.00000E+000	3.40000E-001	4.77035E-005	6	..........a	-327.65
	127	12.8	3.30116E-001	-1.50551E-008	0.00000E+000	3.30000E-001	4.61368E-005	6	..........a	-327.65
	128	12.9	3.20119E-001	-1.51227E-008	0.00000E+000	3.20000E-001	4.86368E-005	6	..........a	-327.65
	129	13	3.10109E-001	-1.52004E-008	0.00000E+000	3.10000E-001	5.03035E-005	6	..........a	-327.65
	130	13.1	3.00177E-001	-1.52638E-008	0.00000E+000	3.00000E-001	4.88369E-005	6	..........a	-327.65
	131	13.2	2.90145E-001	-1.53484E-008	0.00000E+000	2.90000E-001	4.28368E-005	6	..........a	-327.65
	132	13.3	2.80115E-001	-1.54514E-008	0.00000E+000	2.80000E-001	5.05702E-005	6	..........a	-327.65
	133	13.4	2.70070E-001	-1.55816E-008	0.00000E+000	2.70000E-001	5.00035E-005	6	..........a	-327.65
	134	13.5	2.60132E-001	-1.56785E-008	0.00000E+000	2.60000E-001	4.66035E-005	6	..........a	-327.65
	135	13.6	2.50136E-001	-1.58071E-008	0.00000E+000	2.50000E-001	4.13702E-005	6	..........a	-327.65
	136	13.7	2.40140E-001	-1.59329E-008	0.00000E+000	2.40000E-001	4.83702E-005	6	..........a	-327.65
	137	13.8	2.30114E-001	-1.60873E-008	0.00000E+000	2.30000E-001	4.99035E-005	6	..........a	-327.65
	138	13.9	2.20158E-001	-1.62301E-008	0.00000E+000	2.20000E-001	5.20368E-005	6	..........a	-327.65
	139	14	2.10124E-001	-1.64427E-008	0.00000E+000	2.10000E-001	5.25035E-005	6	..........a	-327.65
	140	14.1	2.00122E-001	-1.66317E-008	0.00000E+000	2.00000E-001	5.55702E-005	6	..........a	-327.65
	141	14.2	1.90139E-001	-1.68517E-008	0.00000E+000	1.90000E-001	5.37702E-005	6	..........a	-327.65
	142	14.3	1.80126E-001	-1.70468E-008	0.00000E+000	1.80000E-001	5.19035E-005	6	..........a	-327.65
	143	14.4	1.70122E-001	-1.72694E-008	0.00000E+000	1.70000E-001	5.25035E-005	6	..........a	-327.65
	144	14.5	1.60120E-001	-1.75244E-008	0.00000E+000	1.60000E-001	5.21368E-005	6	..........a	-327.65
	145	14.6	1.50128E-001	-1.77853E-008	0.00000E+000	1.50000E-001	4.65035E-005	6	..........a	-327.65
	146	14.7	1.40161E-001	-1.80381E-008	0.00000E+000	1.40000E-001	4.58368E-005	6	..........a	-327.65
	147	14.8	1.30116E-001	-1.83282E-008	0.00000E+000	1.30000E-001	4.82368E-005	6	..........a	-327.65
	148	14.9	1.20114E-001	-1.86131E-008	0.00000E+000	1.20000E-001	4.89702E-005	6	..........a	-327.65
	149	15	1.10115E-001	-1.89180E-008	0.00000E+000	1.10000E-001	4.69035E-005	6	..........a	-327.65
	150	15.1	1.00145E-001	-1.92311E-008	0.00000E+000	1.00000E-001	5.02035E-005	6	..........a	-327.65
	151	15.2	9.00822E-002	-1.95285E-008	0.00000E+000	9.00000E-002	5.01368E-005	6	..........a	-327.65
	152	15.3	8.01260E-002	-1.98254E-008	0.00000E+000	8.00000E-002	4.90368E-005	6	..........a	-327.65
	153	15.4	7.01087E-002	-2.01411E-008	0.00000E+000	7.00000E-002	4.86035E-005	6	..........a	-327.65
	154	15.5	6.01551E-002	-2.04707E-008	0.00000E+000	6.00000E-002	5.10702E-005	6	..........a	-327.65
	155	15.6	5.01352E-002	-2.08027E-008	0.00000E+000	5.00000E-002	4.87702E-005	6	..........a	-327.65
	156	15.7	4.01168E-002	-2.11279E-008	0.00000E+000	4.00000E-002	5.35702E-005	6	..........a	-327.65
	157	15.8	3.01294E-002	-2.14734E-008	0.00000E+000	3.00000E-002	5.33702E-005	6	..........a	-327.65
	158	15.9	2.01217E-002	-2.18057E-008	0.00000E+000	2.00000E-002	5.10035E-005	6	..........a	-327.65
	159	16	1.01451E-002	-2.21811E-008	0.00000E+000	1.00000E-002	4.78368E-005	6	..........a	-327.65
	160	16.1	1.05161E-004	-2.25705E-008	0.00000E+000	7.45058E-009	4.67035E-005	6	..........a	-327.65
	161	16.2	-9.99481E-003	-2.29741E-008	0.00000E+000	-1.00000E-002	5.12035E-005	6	..........a	-327.65
	162	16.3	-1.99520E-002	-2.34050E-008	0.00000E+000	-2.00000E-002	4.89035E-005	6	..........a	-327.65
	163	16.4	-3.00205E-002	-2.38533E-008	0.00000E+000	-3.00000E-002	4.27035E-005	6	..........a	-327.65
	164	16.5	-3.99788E-002	-2.43242E-008	0.00000E+000	-4.00000E-002	4.70368E-005	6	..........a	-327.65
	165	16.6	-5.00265E-002	-2.48286E-008	0.00000E+000	-5.00000E-002	4.27368E-005	6	..........a	-327.65
	166	16.7	-5.99741E-002	-2.53852E-008	0.00000E+000	-6.00000E-002	3.96368E-005	6	..........a	-327.65
	167	16.8	-6.99888E-002	-2.59565E-008	0.00000E+000	-7.00000E-002	4.41035E-005	6	..........a	-327.65
	168	16.9	-7.99751E-002	-2.65933E-008	0.00000E+000	-8.00000E-002	4.51702E-005	6	..........a	-327.65
	169	17	-8.99940E-002	-2.72775E-008	0.00000E+000	-9.00000E-002	4.25035E-005	6	..........a	-327.65
	170	17.1	-9.99796E-002	-2.79987E-008	0.00000E+000	-1.00000E-001	4.09035E-005	6	..........a	-327.65
	171	17.2	-1.10002E-001	-2.87647E-008	0.00000E+000	-1.10000E-001	4.41702E-005	6	..........a	-327.65
	172	17.3	-1.19967E-001	-2.95957E-008	0.00000E+000	-1.20000E-001	4.47702E-005	6	..........a	-327.65
	173	17.4	-1.30014E-001	-3.04823E-008	0.00000E+000	-1.30000E-001	4.21368E-005	6	..........a	-327.65
	174	17.5	-1.39980E-001	-3.14242E-008	0.00000E+000	-1.40000E-001	3.77702E-005	6	..........a	-327.65
	175	17.6	-1.50002E-001	-3.24336E-008	0.00000E+000	-1.50000E-001	4.37035E-005	6	..........a	-327.65
	176	17.7	-1.59942E-001	-3.34674E-008	0.00000E+000	-1.60000E-001	4.30368E-005	6	..........a	-327.65
	177	17.8	-1.69972E-001	-3.45677E-008	0.00000E+000	-1.70000E-001	4.27702E-005	6	..........a	-327.65
	178	17.9	-1.79959E-001	-3.57179E-008	0.00000E+000	-1.80000E-001	4.30702E-005	6	..........a	-327.65
	179	18	-1.90051E-001	-3.68999E-008	0.00000E+000	-1.90000E-001	3.69368E-005	6	..........a	-327.65
	180	18.1	-1.99985E-001	-3.81327E-008	0.00000E+000	-2.00000E-001	4.24702E-005	6	..........a	-327.65
	181	18.2	-2.10002E-001	-3.94160E-008	0.00000E+000	-2.10000E-001	4.64035E-005	6	..........a	-327.65
	182	18.3	-2.19948E-001	-4.07103E-008	0.00000E+000	-2.20000E-001	5.08035E-005	6	..........a	-327.65
	183	18.4	-2.30011E-001	-4.20355E-008	0.00000E+000	-2.30000E-001	4.90035E-005	6	..........a	-327.65
	184	18.5	-2.39948E-001	-4.33331E-008	0.00000E+000	-2.40000E-001	4.75702E-005	6	..........a	-327.65
	185	18.6	-2.49994E-001	-4.46947E-008	0.00000E+000	-2.50000E-001	4.78702E-005	6	..........a	-327.65
	186	18.7	-2.59937E-001	-4.60776E-008	0.00000E+000	-2.60000E-001	4.73035E-005	6	..........a	-327.65
	187	18.8	-2.69959E-001	-4.74447E-008	0.00000E+000	-2.70000E-001	5.11035E-005	6	..........a	-327.65
	188	18.9	-2.79973E-001	-4.88720E-008	0.00000E+000	-2.80000E-001	5.02368E-005	6	..........a	-327.65
	189	19	-2.89974E-001	-5.03093E-008	0.00000E+000	-2.90000E-001	4.81035E-005	6	..........a	-327.65
	190	19.1	-2.99967E-001	-5.17949E-008	0.00000E+000	-3.00000E-001	5.02702E-005	6	..........a	-327.65
	191	19.2	-3.09999E-001	-5.33201E-008	0.00000E+000	-3.10000E-001	5.31368E-005	6	..........a	-327.65
	192	19.3	-3.19941E-001	-5.49349E-008	0.00000E+000	-3.20000E-001	5.58035E-005	6	..........a	-327.65
	193	19.4	-3.30002E-001	-5.65815E-008	0.00000E+000	-3.30000E-001	5.60702E-005	6	..........a	-327.65
	194	19.5	-3.39971E-001	-5.83198E-008	0.00000E+000	-3.40000E-001	5.03368E-005	6	..........a	-327.65
	195	19.6	-3.49995E-001	-6.01755E-008	0.00000E+000	-3.50000E-001	5.55035E-005	6	..........a	-327.65
	196	19.7	-3.59958E-001	-6.22179E-008	0.00000E+000	-3.60000E-001	5.45368E-005	6	..........a	-327.65
	197	19.8	-3.70047E-001	-6.44126E-008	0.00000E+000	-3.70000E-001	5.17368E-005	6	..........a	-327.65
	198	19.9	-3.79961E-001	-6.67698E-008	0.00000E+000	-3.80000E-001	4.97368E-005	6	..........a	-327.65
	199	20	-3.90022E-001	-6.93338E-008	0.00000E+000	-3.90000E-001	5.01702E-005	6	..........a	-327.65
	200	20.1	-3.99978E-001	-7.20899E-008	0.00000E+000	-4.00000E-001	5.30035E-005	6	..........a	-327.65
	201	20.2	-4.10069E-001	-7.50524E-008	0.00000E+000	-4.10000E-001	5.45368E-005	6	..........a	-327.65
	202	20.3	-4.20047E-001	-7.82044E-008	0.00000E+000	-4.20000E-001	4.93702E-005	6	..........a	-327.65
	203	20.4	-4.30066E-001	-8.15091E-008	0.00000E+000	-4.30000E-001	5.48702E-005	6	..........a	-327.65
	204	20.5	-4.40050E-001	-8.49532E-008	0.00000E+000	-4.40000E-001	4.93702E-005	6	..........a	-327.65
	205	20.6	-4.50065E-001	-8.84697E-008	0.00000E+000	-4.50000E-001	5.28368E-005	6	..........a	-327.65
	206	20.7	-4.60057E-001	-9.20271E-008	0.00000E+000	-4.60000E-001	5.10702E-005	6	..........a	-327.65
	207	20.8	-4.70063E-001	-9.55662E-008	0.00000E+000	-4.70000E-001	5.42368E-005	6	..........a	-327.65
	208	20.9	-4.80041E-001	-9.90731E-008	0.00000E+000	-4.80000E-001	5.35035E-005	6	..........a	-327.65
	209	21	-4.90074E-001	-1.02479E-007	0.00000E+000	-4.90000E-001	5.40368E-005	6	..........a	-327.65
	210	21.1	-5.00049E-001	-1.05763E-007	0.00000E+000	-5.00000E-001	5.74368E-005	6	..........a	-327.65
	211	21.2	-5.10087E-001	-1.08790E-007	0.00000E+000	-5.10000E-001	5.50368E-005	6	..........a	-327.65
	212	21.3	-5.20017E-001	-1.11581E-007	0.00000E+000	-5.20000E-001	5.09702E-005	6	..........a	-327.65
	213	21.4	-5.30044E-001	-1.14098E-007	0.00000E+000	-5.30000E-001	5.84369E-005	6	..........a	-327.65
	214	21.5	-5.40034E-001	-1.16305E-007	0.00000E+000	-5.40000E-001	5.94368E-005	6	..........a	-327.65
	215	21.6	-5.50102E-001	-1.18117E-007	0.00000E+000	-5.50000E-001	4.88702E-005	6	..........a	-327.65
	216	21.7	-5.60048E-001	-1.19558E-007	0.00000E+000	-5.60000E-001	5.47702E-005	6	..........a	-327.65
	217	21.8	-5.70052E-001	-1.20593E-007	0.00000E+000	-5.70000E-001	5.57035E-005	6	..........a	-327.65
	218	21.9	-5.80022E-001	-1.21240E-007	0.00000E+000	-5.80000E-001	5.70368E-005	6	..........a	-327.65
	219	22	-5.90078E-001	-1.21513E-007	0.00000E+000	-5.90000E-001	4.99368E-005	6	..........a	-327.65
	220	22.1	-6.00070E-001	-1.21444E-007	0.00000E+000	-6.00000E-001	1.14634E-003	6	..........a	-327.65
CURVE2	TABLE
	Pt	T	Vf	Im	Vu	Sig	Ach	IERange	Over	Temp
	#	s	V vs. Ref.	A	V	V	V	#	bits	deg C
	221	22.2	-5.90123E-001	-8.09209E-008	0.00000E+000	-5.90000E-001	5.56702E-005	6	..........a	-327.65
	222	22.3	-5.80066E-001	-6.55285E-008	0.00000E+000	-5.80000E-001	5.09368E-005	6	..........a	-327.65
	223	22.4	-5.70091E-001	-5.44844E-008	0.00000E+000	-5.70000E-001	5.41368E-005	6	..........a	-327.65
	224	22.5	-5.60093E-001	-4.60926E-008	0.00000E+000	-5.60000E-001	6.47035E-005	6	..........a	-327.65
	225	22.6	-5.50146E-001	-3.95381E-008	0.00000E+000	-5.50000E-001	5.54702E-005	6	..........a	-327.65
	226	22.7	-5.40086E-001	-3.43094E-008	0.00000E+000	-5.40000E-001	5.68035E-005	6	..........a	-327.65
	227	22.8	-5.30092E-001	-3.00033E-008	0.00000E+000	-5.30000E-001	5.51369E-005	6	..........a	-327.65
	228	22.9	-5.20059E-001	-2.64853E-008	0.00000E+000	-5.20000E-001	5.32702E-005	6	..........a	-327.65
	229	23	-5.10136E-001	-2.35827E-008	0.00000E+000	-5.10000E-001	4.81702E-005	6	..........a	-327.65
	230	23.1	-5.00097E-001	-2.11585E-008	0.00000E+000	-5.00000E-001	4.34035E-005	6	..........a	-327.65
	231	23.2	-4.90129E-001	-1.91114E-008	0.00000E+000	-4.90000E-001	4.41035E-005	6	..........a	-327.65
	232	23.3	-4.80089E-001	-1.74123E-008	0.00000E+000	-4.80000E-001	4.85368E-005	6	..........a	-327.65
	233	23.4	-4.70125E-001	-1.59613E-008	0.00000E+000	-4.70000E-001	4.86035E-005	6	..........a	-327.65
	234	23.5	-4.60103E-001	-1.47096E-008	0.00000E+000	-4.60000E-001	4.92368E-005	6	..........a	-327.65
	235	23.6	-4.50109E-001	-1.35943E-008	0.00000E+000	-4.50000E-001	5.13702E-005	6	..........a	-327.65
	236	23.7	-4.40098E-001	-1.25912E-008	0.00000E+000	-4.40000E-001	4.66369E-005	6	..........a	-327.65
	237	23.8	-4.30111E-001	-1.16567E-008	0.00000E+000	-4.30000E-001	4.44368E-005	6	..........a	-327.65
	238	23.9	-4.20095E-001	-1.07821E-008	0.00000E+000	-4.20000E-001	5.02368E-005	6	..........a	-327.65
	239	24	-4.10120E-001	-9.93217E-009	0.00000E+000	-4.10000E-001	4.75702E-005	6	..........a	-327.65
	240	24.1	-4.00029E-001	-9.15781E-009	0.00000E+000	-4.00000E-001	4.59369E-005	6	..........a	-327.65
	241	24.2	-3.90073E-001	-8.36164E-009	0.00000E+000	-3.90000E-001	5.76368E-005	6	..........a	-327.65
	242	24.3	-3.80009E-001	-7.59448E-009	0.00000E+000	-3.80000E-001	5.52035E-005	6	..........a	-327.65
	243	24.4	-3.70098E-001	-6.82069E-009	0.00000E+000	-3.70000E-001	4.71035E-005	6	..........a	-327.65
	244	24.5	-3.60016E-001	-6.01642E-009	0.00000E+000	-3.60000E-001	5.06702E-005	6	..........a	-327.65
	245	24.6	-3.50041E-001	-5.17404E-009	0.00000E+000	-3.50000E-001	5.25035E-005	6	..........a	-327.65
	246	24.7	-3.40018E-001	-4.34143E-009	0.00000E+000	-3.40000E-001	5.35035E-005	6	..........a	-327.65
	247	24.8	-3.30048E-001	-3.50268E-009	0.00000E+000	-3.30000E-001	4.79702E-005	6	..........a	-327.65
	248	24.9	-3.20004E-001	-2.62029E-009	0.00000E+000	-3.20000E-001	5.19702E-005	6	..........a	-327.65
	249	25	-3.10054E-001	-1.71986E-009	0.00000E+000	-3.10000E-001	5.48702E-005	6	..........a	-327.65
	250	25.1	-3.00019E-001	-8.27795E-010	0.00000E+000	-3.00000E-001	4.12368E-005	6	..........a	-327.65
	251	25.2	-2.90049E-001	7.01352E-011	0.00000E+000	-2.90000E-001	5.00035E-005	6	..........a	-327.65
	252	25.3	-2.80031E-001	9.83604E-010	0.00000E+000	-2.80000E-001	5.05702E-005	6	..........a	-327.65
	253	25.4	-2.70013E-001	1.87036E-009	0.00000E+000	-2.70000E-001	5.24702E-005	6	..........a	-327.65
	254	25.5	-2.60004E-001	2.77230E-009	0.00000E+000	-2.60000E-001	5.17035E-005	6	..........a	-327.65
	255	25.6	-2.50050E-001	3.67786E-009	0.00000E+000	-2.50000E-001	4.90702E-005	6	..........a	-327.65
	256	25.7	-2.40012E-001	4.53308E-009	0.00000E+000	-2.40000E-001	5.38702E-005	6	..........a	-327.65
	257	25.8	-2.30070E-001	5.38500E-009	0.00000E+000	-2.30000E-001	4.97035E-005	6	..........a	-327.65
	258	25.9	-2.20003E-001	6.22438E-009	0.00000E+000	-2.20000E-001	5.60035E-005	6	..........a	-327.65
	259	26	-2.10061E-001	7.06936E-009	0.00000E+000	-2.10000E-001	5.43702E-005	6	..........a	-327.65
	260	26.1	-2.00036E-001	7.89063E-009	0.00000E+000	-2.00000E-001	5.61035E-005	6	..........a	-327.65
	261	26.2	-1.90104E-001	8.70214E-009	0.00000E+000	-1.90000E-001	5.66035E-005	6	..........a	-327.65
	262	26.3	-1.80016E-001	9.51788E-009	0.00000E+000	-1.80000E-001	5.03368E-005	6	..........a	-327.65
	263	26.4	-1.70024E-001	1.02752E-008	0.00000E+000	-1.70000E-001	4.88369E-005	6	..........a	-327.65
	264	26.5	-1.59989E-001	1.10800E-008	0.00000E+000	-1.60000E-001	5.42368E-005	6	..........a	-327.65
	265	26.6	-1.50050E-001	1.18660E-008	0.00000E+000	-1.50000E-001	5.40368E-005	6	..........a	-327.65
	266	26.7	-1.40041E-001	1.26427E-008	0.00000E+000	-1.40000E-001	5.45368E-005	6	..........a	-327.65
	267	26.8	-1.30057E-001	1.34400E-008	0.00000E+000	-1.30000E-001	5.03702E-005	6	..........a	-327.65
	268	26.9	-1.20011E-001	1.42353E-008	0.00000E+000	-1.20000E-001	4.51035E-005	6	..........a	-327.65
	269	27	-1.10044E-001	1.50129E-008	0.00000E+000	-1.10000E-001	4.91368E-005	6	..........a	-327.65
	270	27.1	-1.00030E-001	1.58051E-008	0.00000E+000	-1.00000E-001	5.04368E-005	6	..........a	-327.65
	271	27.2	-9.00387E-002	1.66047E-008	0.00000E+000	-9.00000E-002	4.43035E-005	6	..........a	-327.65
	272	27.3	-8.00232E-002	1.74274E-008	0.00000E+000	-8.00000E-002	5.26702E-005	6	..........a	-327.65
	273	27.4	-7.00267E-002	1.82772E-008	0.00000E+000	-7.00000E-002	4.59369E-005	6	..........a	-327.65
	274	27.5	-6.00128E-002	1.90907E-008	0.00000E+000	-6.00000E-002	4.94035E-005	6	..........a	-327.65
	275	27.6	-5.00691E-002	1.99739E-008	0.00000E+000	-5.00000E-002	5.26702E-005	6	..........a	-327.65
	276	27.7	-4.00223E-002	2.08419E-008	0.00000E+000	-4.00000E-002	4.82035E-005	6	..........a	-327.65
	277	27.8	-3.00668E-002	2.17438E-008	0.00000E+000	-3.00000E-002	4.67368E-005	6	..........a	-327.65
	278	27.9	-2.00035E-002	2.26392E-008	0.00000E+000	-2.00000E-002	4.04702E-005	6	..........a	-327.65
	279	28	-1.00479E-002	2.35835E-008	0.00000E+000	-1.00000E-002	4.03368E-005	6	..........a	-327.65
	280	28.1	5.49192E-005	2.45720E-008	0.00000E+000	7.45058E-009	4.59702E-005	6	..........a	-327.65
	281	28.2	1.01000E-002	2.55672E-008	0.00000E+000	1.00000E-002	4.42368E-005	6	..........a	-327.65
	282	28.3	2.00716E-002	2.66242E-008	0.00000E+000	2.00000E-002	4.16368E-005	6	..........a	-327.65
	283	28.4	3.00803E-002	2.77188E-008	0.00000E+000	3.00000E-002	3.83368E-005	6	..........a	-327.65
	284	28.5	4.00634E-002	2.88554E-008	0.00000E+000	4.00000E-002	4.24368E-005	6	..........a	-327.65
	285	28.6	5.00878E-002	3.00064E-008	0.00000E+000	5.00000E-002	4.26368E-005	6	..........a	-327.65
	286	28.7	6.01036E-002	3.12286E-008	0.00000E+000	6.00000E-002	3.81702E-005	6	..........a	-327.65
	287	28.8	7.00639E-002	3.24641E-008	0.00000E+000	7.00000E-002	4.67702E-005	6	..........a	-327.65
	288	28.9	8.00840E-002	3.37595E-008	0.00000E+000	8.00000E-002	4.21702E-005	6	..........a	-327.65
	289	29	9.00324E-002	3.51075E-008	0.00000E+000	9.00000E-002	4.40702E-005	6	..........a	-327.65
	290	29.1	1.00089E-001	3.64452E-008	0.00000E+000	1.00000E-001	4.74035E-005	6	..........a	-327.65
	291	29.2	1.10073E-001	3.78544E-008	0.00000E+000	1.10000E-001	4.24368E-005	6	..........a	-327.65
	292	29.3	1.20067E-001	3.92905E-008	0.00000E+000	1.20000E-001	4.70368E-005	6	..........a	-327.65
	293	29.4	1.30079E-001	4.07337E-008	0.00000E+000	1.30000E-001	4.87035E-005	6	..........a	-327.65
	294	29.5	1.40115E-001	4.22220E-008	0.00000E+000	1.40000E-001	4.45702E-005	6	..........a	-327.65
	295	29.6	1.50087E-001	4.37195E-008	0.00000E+000	1.50000E-001	5.15702E-005	6	..........a	-327.65
	296	29.7	1.60078E-001	4.52122E-008	0.00000E+000	1.60000E-001	4.54368E-005	6	..........a	-327.65
	297	29.8	1.70080E-001	4.66802E-008	0.00000E+000	1.70000E-001	4.99702E-005	6	..........a	-327.65
	298	29.9	1.80082E-001	4.81535E-008	0.00000E+000	1.80000E-001	4.69035E-005	6	..........a	-327.65
	299	30	1.90094E-001	4.95719E-008	0.00000E+000	1.90000E-001	5.58368E-005	6	..........a	-327.65
	300	30.1	2.00078E-001	5.10141E-008	0.00000E+000	2.00000E-001	5.11368E-005	6	..........a	-327.65
	301	30.2	2.10082E-001	5.24028E-008	0.00000E+000	2.10000E-001	5.18702E-005	6	..........a	-327.65
	302	30.3	2.20117E-001	5.37388E-008	0.00000E+000	2.20000E-001	5.33035E-005	6	..........a	-327.65
	303	30.4	2.30072E-001	5.50130E-008	0.00000E+000	2.30000E-001	4.73368E-005	6	..........a	-327.65
	304	30.5	2.40099E-001	5.62435E-008	0.00000E+000	2.40000E-001	5.45035E-005	6	..........a	-327.65
	305	30.6	2.50098E-001	5.73973E-008	0.00000E+000	2.50000E-001	5.27035E-005	6	..........a	-327.65
	306	30.7	2.60091E-001	5.85093E-008	0.00000E+000	2.60000E-001	4.46369E-005	6	..........a	-327.65
	307	30.8	2.70025E-001	5.94906E-008	0.00000E+000	2.70000E-001	4.56702E-005	6	..........a	-327.65
	308	30.9	2.80070E-001	6.03728E-008	0.00000E+000	2.80000E-001	4.77702E-005	6	..........a	-327.65
	309	31	2.90104E-001	6.11700E-008	0.00000E+000	2.90000E-001	4.81702E-005	6	..........a	-327.65
	310	31.1	3.00126E-001	6.18511E-008	0.00000E+000	3.00000E-001	4.31702E-005	6	..........a	-327.65
	311	31.2	3.10064E-001	6.24174E-008	0.00000E+000	3.10000E-001	4.49035E-005	6	..........a	-327.65
	312	31.3	3.20074E-001	6.28933E-008	0.00000E+000	3.20000E-001	4.78368E-005	6	..........a	-327.65
	313	31.4	3.30072E-001	6.32204E-008	0.00000E+000	3.30000E-001	4.24035E-005	6	..........a	-327.65
	314	31.5	3.40091E-001	6.34488E-008	0.00000E+000	3.40000E-001	4.28035E-005	6	..........a	-327.65
	315	31.6	3.50067E-001	6.35106E-008	0.00000E+000	3.50000E-001	4.85368E-005	6	..........a	-327.65
	316	31.7	3.60059E-001	6.34910E-008	0.00000E+000	3.60000E-001	5.09702E-005	6	..........a	-327.65
	317	31.8	3.70085E-001	6.33353E-008	0.00000E+000	3.70000E-001	4.77702E-005	6	..........a	-327.65
	318	31.9	3.80091E-001	6.30928E-008	0.00000E+000	3.80000E-001	4.83368E-005	6	..........a	-327.65
	319	32	3.90081E-001	6.27283E-008	0.00000E+000	3.90000E-001	4.56035E-005	6	..........a	-327.65
	320	32.1	4.00107E-001	6.22977E-008	0.00000E+000	4.00000E-001	4.75369E-005	6	..........a	-327.65
	321	32.2	4.10135E-001	6.18435E-008	0.00000E+000	4.10000E-001	4.35035E-005	6	..........a	-327.65
	322	32.3	4.20155E-001	6.12979E-008	0.00000E+000	4.20000E-001	4.73702E-005	6	..........a	-327.65
	323	32.4	4.30117E-001	6.07088E-008	0.00000E+000	4.30000E-001	5.09702E-005	6	..........a	-327.65
	324	32.5	4.40135E-001	6.01515E-008	0.00000E+000	4.40000E-001	5.12035E-005	6	..........a	-327.65
	325	32.6	4.50119E-001	5.95676E-008	0.00000E+000	4.50000E-001	5.01702E-005	6	..........a	-327.65
	326	32.7	4.60166E-001	5.90059E-008	0.00000E+000	4.60000E-001	4.49035E-005	6	..........a	-327.65
	327	32.8	4.70134E-001	5.84515E-008	0.00000E+000	4.70000E-001	3.84035E-005	6	..........a	-327.65
	328	32.9	4.80128E-001	5.79385E-008	0.00000E+000	4.80000E-001	4.58368E-005	6	..........a	-327.65
	329	33	4.90156E-001	5.74669E-008	0.00000E+000	4.90000E-001	5.08368E-005	6	..........a	-327.65
	330	33.1	5.00113E-001	5.70058E-008	0.00000E+000	5.00000E-001	4.68702E-005	6	..........a	-327.65
	331	33.2	5.10132E-001	5.65986E-008	0.00000E+000	5.10000E-001	4.74035E-005	6	..........a	-327.65
	332	33.3	5.20130E-001	5.62470E-008	0.00000E+000	5.20000E-001	4.82035E-005	6	..........a	-327.65
	333	33.4	5.30125E-001	5.59123E-008	0.00000E+000	5.30000E-001	4.71702E-005	6	..........a	-327.65
	334	33.5	5.40156E-001	5.56317E-008	0.00000E+000	5.40000E-001	4.36035E-005	6	..........a	-327.65
	335	33.6	5.50152E-001	5.53699E-008	0.00000E+000	5.50000E-001	4.92035E-005	6	..........a	-327.65
	336	33.7	5.60136E-001	5.51499E-008	0.00000E+000	5.60000E-001	4.73035E-005	6	..........a	-327.65
	337	33.8	5.70156E-001	5.49632E-008	0.00000E+000	5.70000E-001	4.93035E-005	6	..........a	-327.65
	338	33.9	5.80189E-001	5.47793E-008	0.00000E+000	5.80000E-001	4.65035E-005	6	..........a	-327.65
	339	34	5.90122E-001	5.46922E-008	0.00000E+000	5.90000E-001	4.61702E-005	6	..........a	-327.65
	340	34.1	6.00149E-001	5.46064E-008	0.00000E+000	6.00000E-001	4.75369E-005	6	..........a	-327.65
	341	34.2	6.10148E-001	5.45348E-008	0.00000E+000	6.10000E-001	4.40035E-005	6	..........a	-327.65
	342	34.3	6.20154E-001	5.45095E-008	0.00000E+000	6.20000E-001	4.46035E-005	6	..........a	-327.65
	343	34.4	6.30133E-001	5.45279E-008	0.00000E+000	6.30000E-001	4.87368E-005	6	..........a	-327.65
	344	34.5	6.40113E-001	5.45733E-008	0.00000E+000	6.40000E-001	4.38035E-005	6	..........a	-327.65
	345	34.6	6.50167E-001	5.46401E-008	0.00000E+000	6.50000E-001	4.47368E-005	6	..........a	-327.65
	346	34.7	6.60144E-001	5.47413E-008	0.00000E+000	6.60000E-001	4.32035E-005	6	..........a	-327.65
	347	34.8	6.70128E-001	5.49239E-008	0.00000E+000	6.70000E-001	4.61035E-005	6	..........a	-327.65
	348	34.9	6.80099E-001	5.51172E-008	0.00000E+000	6.80000E-001	4.45702E-005	6	..........a	-327.65
	349	35	6.90139E-001	5.53735E-008	0.00000E+000	6.90000E-001	4.47368E-005	6	..........a	-327.65
	350	35.1	7.00170E-001	5.56723E-008	0.00000E+000	7.00000E-001	4.83035E-005	6	..........a	-327.65
	351	35.2	7.10141E-001	5.59997E-008	0.00000E+000	7.10000E-001	4.57368E-005	6	..........a	-327.65
	352	35.3	7.20118E-001	5.64198E-008	0.00000E+000	7.20000E-001	4.66035E-005	6	..........a	-327.65
	353	35.4	7.30079E-001	5.68451E-008	0.00000E+000	7.30000E-001	4.77369E-005	6	..........a	-327.65
	354	35.5	7.40134E-001	5.73845E-008	0.00000E+000	7.40000E-001	4.98368E-005	6	..........a	-327.65
	355	35.6	7.50139E-001	5.80075E-008	0.00000E+000	7.50000E-001	4.90368E-005	6	..........a	-327.65
	356	35.7	7.60147E-001	5.87144E-008	0.00000E+000	7.60000E-001	4.72702E-005	6	..........a	-327.65
	357	35.8	7.70120E-001	5.94837E-008	0.00000E+000	7.70000E-001	4.98035E-005	6	..........a	-327.65
	358	35.9	7.80155E-001	6.03270E-008	0.00000E+000	7.80000E-001	4.89368E-005	6	..........a	-327.65
	359	36	7.90129E-001	6.12662E-008	0.00000E+000	7.90000E-001	5.04368E-005	6	..........a	-327.65
	360	36.1	8.00140E-001	6.23780E-008	0.00000E+000	8.00000E-001	1.14244E-003	6	..........a	-327.65
	361	36.2	7.90169E-001	2.67677E-008	0.00000E+000	7.90000E-001	5.07702E-005	6	..........a	-327.65
	362	36.3	7.80194E-001	1.79769E-008	0.00000E+000	7.80000E-001	4.44035E-005	6	..........a	-327.65
	363	36.4	7.70161E-001	1.19083E-008	0.00000E+000	7.70000E-001	4.10702E-005	6	..........a	-327.65
	364	36.5	7.60184E-001	7.37858E-009	0.00000E+000	7.60000E-001	4.36368E-005	6	..........a	-327.65
	365	36.6	7.50179E-001	3.90423E-009	0.00000E+000	7.50000E-001	4.17702E-005	6	..........a	-327.65
	366	36.7	7.40175E-001	1.12384E-009	0.00000E+000	7.40000E-001	4.06035E-005	6	..........a	-327.65
	367	36.8	7.30108E-001	-1.11268E-009	0.00000E+000	7.30000E-001	4.20035E-005	6	..........a	-327.65
	368	36.9	7.20159E-001	-2.96302E-009	0.00000E+000	7.20000E-001	4.98035E-005	6	..........a	-327.65
	369	37	7.10184E-001	-4.49287E-009	0.00000E+000	7.10000E-001	4.81368E-005	6	..........a	-327.65
[...]
	1204	120.5	7.60188E-001	7.00691E-009	0.00000E+000	7.60000E-001	4.21368E-005	6	..........a	-327.65
	1205	120.6	7.50181E-001	3.45720E-009	0.00000E+000	7.50000E-001	3.80702E-005	6	..........a	-327.65
	1206	120.7	7.40179E-001	6.31567E-010	0.00000E+000	7.40000E-001	4.70702E-005	6	..........a	-327.65
	1207	120.8	7.30120E-001	-1.68918E-009	0.00000E+000	7.30000E-001	4.58035E-005	6	..........a	-327.65
	1208	120.9	7.20167E-001	-3.54893E-009	0.00000E+000	7.20000E-001	3.86035E-005	6	..........a	-327.65
	1209	121	7.10193E-001	-5.10755E-009	0.00000E+000	7.10000E-001	4.35035E-005	6	..........a	-327.65
	1210	121.1	7.00218E-001	-6.45258E-009	0.00000E+000	7.00000E-001	4.21368E-005	6	..........a	-327.65
	1211	121.2	6.90183E-001	-7.59172E-009	0.00000E+000	6.90000E-001	4.09035E-005	6	..........a	-327.65
	1212	121.3	6.80149E-001	-8.60741E-009	0.00000E+000	6.80000E-001	4.17702E-005	6	..........a	-327.65
	1213	121.4	6.70172E-001	-9.50208E-009	0.00000E+000	6.70000E-001	4.76035E-005	6	..........a	-327.65
	1214	121.5	6.60190E-001	-1.02776E-008	0.00000E+000	6.60000E-001	4.40035E-005	6	..........a	-327.65
	1215	121.6	6.50215E-001	-1.09562E-008	0.00000E+000	6.50000E-001	4.53702E-005	6	..........a	-327.65
	1216	121.7	6.40158E-001	-1.15689E-008	0.00000E+000	6.40000E-001	4.40702E-005	6	..........a	-327.65
	1217	121.8	6.30182E-001	-1.21070E-008	0.00000E+000	6.30000E-001	4.38368E-005	6	..........a	-327.65
	1218	121.9	6.20199E-001	-1.26232E-008	0.00000E+000	6.20000E-001	4.16368E-005	6	..........a	-327.65
	1219	122	6.10185E-001	-1.30683E-008	0.00000E+000	6.10000E-001	4.35702E-005	6	..........a	-327.65
	1220	122.1	6.00198E-001	-1.34858E-008	0.00000E+000	6.00000E-001	4.61368E-005	6	..........a	-327.65
	1221	122.2	5.90168E-001	-1.38830E-008	0.00000E+000	5.90000E-001	4.62035E-005	6	..........a	-327.65
	1222	122.3	5.80240E-001	-1.42702E-008	0.00000E+000	5.80000E-001	4.32702E-005	6	..........a	-327.65
	1223	122.4	5.70203E-001	-1.46074E-008	0.00000E+000	5.70000E-001	4.45702E-005	6	..........a	-327.65
	1224	122.5	5.60178E-001	-1.49167E-008	0.00000E+000	5.60000E-001	4.69035E-005	6	..........a	-327.65
	1225	122.6	5.50203E-001	-1.52153E-008	0.00000E+000	5.50000E-001	4.16035E-005	6	..........a	-327.65
	1226	122.7	5.40201E-001	-1.55156E-008	0.00000E+000	5.40000E-001	4.45702E-005	6	..........a	-327.65
	1227	122.8	5.30164E-001	-1.57757E-008	0.00000E+000	5.30000E-001	5.07035E-005	6	..........a	-327.65
	1228	122.9	5.20171E-001	-1.60267E-008	0.00000E+000	5.20000E-001	5.24702E-005	6	..........a	-327.65
	1229	123	5.10173E-001	-1.62629E-008	0.00000E+000	5.10000E-001	4.73035E-005	6	..........a	-327.65
	1230	123.1	5.00158E-001	-1.64676E-008	0.00000E+000	5.00000E-001	4.79702E-005	6	..........a	-327.65
	1231	123.2	4.90197E-001	-1.66777E-008	0.00000E+000	4.90000E-001	4.42035E-005	6	..........a	-327.65
	1232	123.3	4.80170E-001	-1.68679E-008	0.00000E+000	4.80000E-001	4.30368E-005	6	..........a	-327.65
	1233	123.4	4.70179E-001	-1.70884E-008	0.00000E+000	4.70000E-001	4.78702E-005	6	..........a	-327.65
	1234	123.5	4.60216E-001	-1.72393E-008	0.00000E+000	4.60000E-001	5.24035E-005	6	..........a	-327.65
	1235	123.6	4.50153E-001	-1.74184E-008	0.00000E+000	4.50000E-001	5.39035E-005	6	..........a	-327.65
	1236	123.7	4.40178E-001	-1.75658E-008	0.00000E+000	4.40000E-001	4.89702E-005	6	..........a	-327.65
	1237	123.8	4.30163E-001	-1.77006E-008	0.00000E+000	4.30000E-001	4.94368E-005	6	..........a	-327.65
	1238	123.9	4.20199E-001	-1.78238E-008	0.00000E+000	4.20000E-001	5.45368E-005	6	..........a	-327.65
	1239	124	4.10182E-001	-1.79600E-008	0.00000E+000	4.10000E-001	5.07368E-005	6	..........a	-327.65
	1240	124.1	4.00159E-001	-1.80622E-008	0.00000E+000	4.00000E-001	4.80035E-005	6	..........a	-327.65
	1241	124.2	3.90123E-001	-1.81513E-008	0.00000E+000	3.90000E-001	4.86368E-005	6	..........a	-327.65
	1242	124.3	3.80141E-001	-1.82236E-008	0.00000E+000	3.80000E-001	4.91702E-005	6	..........a	-327.65
	1243	124.4	3.70133E-001	-1.83047E-008	0.00000E+000	3.70000E-001	4.52702E-005	6	..........a	-327.65
	1244	124.5	3.60103E-001	-1.83916E-008	0.00000E+000	3.60000E-001	4.59035E-005	6	..........a	-327.65
	1245	124.6	3.50118E-001	-1.85031E-008	0.00000E+000	3.50000E-001	4.65035E-005	6	..........a	-327.65
	1246	124.7	3.40135E-001	-1.85714E-008	0.00000E+000	3.40000E-001	4.67702E-005	6	..........a	-327.65
	1247	124.8	3.30114E-001	-1.86413E-008	0.00000E+000	3.30000E-001	4.98702E-005	6	..........a	-327.65
	1248	124.9	3.20123E-001	-1.87284E-008	0.00000E+000	3.20000E-001	4.78035E-005	6	..........a	-327.65
	1249	125	3.10108E-001	-1.88141E-008	0.00000E+000	3.10000E-001	4.30368E-005	6	..........a	-327.65
	1250	125.1	3.00175E-001	-1.88861E-008	0.00000E+000	3.00000E-001	4.54035E-005	6	..........a	-327.65
	1251	125.2	2.90143E-001	-1.89807E-008	0.00000E+000	2.90000E-001	4.95035E-005	6	..........a	-327.65
	1252	125.3	2.80112E-001	-1.90958E-008	0.00000E+000	2.80000E-001	5.29702E-005	6	..........a	-327.65
	1253	125.4	2.70067E-001	-1.92190E-008	0.00000E+000	2.70000E-001	5.10702E-005	6	..........a	-327.65
	1254	125.5	2.60131E-001	-1.93684E-008	0.00000E+000	2.60000E-001	4.79368E-005	6	..........a	-327.65
	1255	125.6	2.50132E-001	-1.95466E-008	0.00000E+000	2.50000E-001	4.66702E-005	6	..........a	-327.65
	1256	125.7	2.40139E-001	-1.96917E-008	0.00000E+000	2.40000E-001	5.08368E-005	6	..........a	-327.65
	1257	125.8	2.30111E-001	-1.99045E-008	0.00000E+000	2.30000E-001	4.80702E-005	6	..........a	-327.65
	1258	125.9	2.20157E-001	-2.01088E-008	0.00000E+000	2.20000E-001	4.80368E-005	6	..........a	-327.65
	1259	126	2.10125E-001	-2.03403E-008	0.00000E+000	2.10000E-001	4.68035E-005	6	..........a	-327.65
	1260	126.1	2.00119E-001	-2.05604E-008	0.00000E+000	2.00000E-001	4.57368E-005	6	..........a	-327.65
	1261	126.2	1.90137E-001	-2.08589E-008	0.00000E+000	1.90000E-001	4.80035E-005	6	..........a	-327.65
	1262	126.3	1.80126E-001	-2.11131E-008	0.00000E+000	1.80000E-001	5.09368E-005	6	..........a	-327.65
	1263	126.4	1.70128E-001	-2.14005E-008	0.00000E+000	1.70000E-001	4.55702E-005	6	..........a	-327.65
	1264	126.5	1.60118E-001	-2.17092E-008	0.00000E+000	1.60000E-001	4.86368E-005	6	..........a	-327.65
	1265	126.6	1.50126E-001	-2.20505E-008	0.00000E+000	1.50000E-001	4.43035E-005	6	..........a	-327.65
	1266	126.7	1.40161E-001	-2.23686E-008	0.00000E+000	1.40000E-001	4.87035E-005	6	..........a	-327.65
	1267	126.8	1.30117E-001	-2.27090E-008	0.00000E+000	1.30000E-001	4.94702E-005	6	..........a	-327.65
	1268	126.9	1.20117E-001	-2.30959E-008	0.00000E+000	1.20000E-001	4.92368E-005	6	..........a	-327.65
	1269	127	1.10117E-001	-2.34594E-008	0.00000E+000	1.10000E-001	5.19368E-005	6	..........a	-327.65
	1270	127.1	1.00146E-001	-2.38486E-008	0.00000E+000	1.00000E-001	5.11368E-005	6	..........a	-327.65
	1271	127.2	9.00786E-002	-2.42189E-008	0.00000E+000	9.00000E-002	4.72035E-005	6	..........a	-327.65
	1272	127.3	8.01272E-002	-2.46229E-008	0.00000E+000	8.00000E-002	5.13369E-005	6	..........a	-327.65
	1273	127.4	7.01083E-002	-2.50257E-008	0.00000E+000	7.00000E-002	5.27368E-005	6	..........a	-327.65
	1274	127.5	6.01542E-002	-2.54268E-008	0.00000E+000	6.00000E-002	4.85035E-005	6	..........a	-327.65
	1275	127.6	5.01357E-002	-2.58571E-008	0.00000E+000	5.00000E-002	5.01368E-005	6	..........a	-327.65
	1276	127.7	4.01189E-002	-2.62695E-008	0.00000E+000	4.00000E-002	5.61368E-005	6	..........a	-327.65
	1277	127.8	3.01298E-002	-2.66947E-008	0.00000E+000	3.00000E-002	4.81368E-005	6	..........a	-327.65
	1278	127.9	2.01237E-002	-2.71371E-008	0.00000E+000	2.00000E-002	4.82702E-005	6	..........a	-327.65
	1279	128	1.01481E-002	-2.76041E-008	0.00000E+000	1.00000E-002	5.17035E-005	6	..........a	-327.65
	1280	128.1	1.00460E-004	-2.80459E-008	0.00000E+000	7.45058E-009	4.82702E-005	6	..........a	-327.65
	1281	128.2	-9.99936E-003	-2.85099E-008	0.00000E+000	-1.00000E-002	4.60702E-005	6	..........a	-327.65
	1282	128.3	-1.99586E-002	-2.90165E-008	0.00000E+000	-2.00000E-002	4.51369E-005	6	..........a	-327.65
	1283	128.4	-3.00228E-002	-2.95034E-008	0.00000E+000	-3.00000E-002	5.27368E-005	6	..........a	-327.65
	1284	128.5	-3.99788E-002	-3.00054E-008	0.00000E+000	-4.00000E-002	5.10369E-005	6	..........a	-327.65
	1285	128.6	-5.00242E-002	-3.05321E-008	0.00000E+000	-5.00000E-002	4.64702E-005	6	..........a	-327.65
	1286	128.7	-5.99641E-002	-3.10885E-008	0.00000E+000	-6.00000E-002	5.04702E-005	6	..........a	-327.65
	1287	128.8	-6.99835E-002	-3.16464E-008	0.00000E+000	-7.00000E-002	5.46035E-005	6	..........a	-327.65
	1288	128.9	-7.99744E-002	-3.22795E-008	0.00000E+000	-8.00000E-002	4.77369E-005	6	..........a	-327.65
	1289	129	-8.99952E-002	-3.29305E-008	0.00000E+000	-9.00000E-002	4.92035E-005	6	..........a	-327.65
	1290	129.1	-9.99805E-002	-3.35726E-008	0.00000E+000	-1.00000E-001	4.78035E-005	6	..........a	-327.65
	1291	129.2	-1.10000E-001	-3.42315E-008	0.00000E+000	-1.10000E-001	4.65368E-005	6	..........a	-327.65
	1292	129.3	-1.19968E-001	-3.49678E-008	0.00000E+000	-1.20000E-001	4.48368E-005	6	..........a	-327.65
	1293	129.4	-1.30012E-001	-3.56944E-008	0.00000E+000	-1.30000E-001	4.36035E-005	6	..........a	-327.65
	1294	129.5	-1.39986E-001	-3.64502E-008	0.00000E+000	-1.40000E-001	4.82702E-005	6	..........a	-327.65
	1295	129.6	-1.50007E-001	-3.72364E-008	0.00000E+000	-1.50000E-001	4.73035E-005	6	..........a	-327.65
	1296	129.7	-1.59947E-001	-3.80822E-008	0.00000E+000	-1.60000E-001	4.00369E-005	6	..........a	-327.65
	1297	129.8	-1.69973E-001	-3.89459E-008	0.00000E+000	-1.70000E-001	4.77702E-005	6	..........a	-327.65
	1298	129.9	-1.79957E-001	-3.98320E-008	0.00000E+000	-1.80000E-001	4.90702E-005	6	..........a	-327.65
	1299	130	-1.90050E-001	-4.07402E-008	0.00000E+000	-1.90000E-001	4.72035E-005	6	..........a	-327.65
	1300	130.1	-1.99978E-001	-4.16595E-008	0.00000E+000	-2.00000E-001	4.71035E-005	6	..........a	-327.65
	1301	130.2	-2.10000E-001	-4.26658E-008	0.00000E+000	-2.10000E-001	5.92702E-005	6	..........a	-327.65
	1302	130.3	-2.19947E-001	-4.36189E-008	0.00000E+000	-2.20000E-001	5.52368E-005	6	..........a	-327.65
	1303	130.4	-2.30011E-001	-4.46218E-008	0.00000E+000	-2.30000E-001	5.80368E-005	6	..........a	-327.65
	1304	130.5	-2.39953E-001	-4.56492E-008	0.00000E+000	-2.40000E-001	5.75035E-005	6	..........a	-327.65
	1305	130.6	-2.49996E-001	-4.66786E-008	0.00000E+000	-2.50000E-001	5.57368E-005	6	..........a	-327.65
	1306	130.7	-2.59944E-001	-4.77498E-008	0.00000E+000	-2.60000E-001	5.15702E-005	6	..........a	-327.65
	1307	130.8	-2.69956E-001	-4.88115E-008	0.00000E+000	-2.70000E-001	5.56368E-005	6	..........a	-327.65
	1308	130.9	-2.79972E-001	-4.99041E-008	0.00000E+000	-2.80000E-001	5.88035E-005	6	..........a	-327.65
	1309	131	-2.89975E-001	-5.09652E-008	0.00000E+000	-2.90000E-001	5.12368E-005	6	..........a	-327.65
	1310	131.1	-2.99963E-001	-5.21440E-008	0.00000E+000	-3.00000E-001	5.28368E-005	6	..........a	-327.65
	1311	131.2	-3.09998E-001	-5.32593E-008	0.00000E+000	-3.10000E-001	5.73368E-005	6	..........a	-327.65
	1312	131.3	-3.19942E-001	-5.44766E-008	0.00000E+000	-3.20000E-001	5.61035E-005	6	..........a	-327.65
	1313	131.4	-3.29991E-001	-5.57027E-008	0.00000E+000	-3.30000E-001	5.41368E-005	6	..........a	-327.65
	1314	131.5	-3.39962E-001	-5.70295E-008	0.00000E+000	-3.40000E-001	5.25369E-005	6	..........a	-327.65
	1315	131.6	-3.49985E-001	-5.84209E-008	0.00000E+000	-3.50000E-001	5.28035E-005	6	..........a	-327.65
	1316	131.7	-3.59955E-001	-5.98788E-008	0.00000E+000	-3.60000E-001	5.49035E-005	6	..........a	-327.65
	1317	131.8	-3.70043E-001	-6.13918E-008	0.00000E+000	-3.70000E-001	5.67035E-005	6	..........a	-327.65
	1318	131.9	-3.79953E-001	-6.29854E-008	0.00000E+000	-3.80000E-001	5.47702E-005	6	..........a	-327.65
	1319	132	-3.90018E-001	-6.46971E-008	0.00000E+000	-3.90000E-001	5.35035E-005	6	..........a	-327.65
	1320	132.1	-3.99976E-001	-6.65189E-008	0.00000E+000	-4.00000E-001	5.32368E-005	6	..........a	-327.65
	1321	132.2	-4.10067E-001	-6.83765E-008	0.00000E+000	-4.10000E-001	5.92035E-005	6	..........a	-327.65
	1322	132.3	-4.20048E-001	-7.02934E-008	0.00000E+000	-4.20000E-001	5.58035E-005	6	..........a	-327.65
	1323	132.4	-4.30059E-001	-7.22676E-008	0.00000E+000	-4.30000E-001	6.01368E-005	6	..........a	-327.65
	1324	132.5	-4.40042E-001	-7.42757E-008	0.00000E+000	-4.40000E-001	5.73702E-005	6	..........a	-327.65
	1325	132.6	-4.50059E-001	-7.63370E-008	0.00000E+000	-4.50000E-001	5.54702E-005	6	..........a	-327.65
	1326	132.7	-4.60051E-001	-7.83352E-008	0.00000E+000	-4.60000E-001	5.45702E-005	6	..........a	-327.65
	1327	132.8	-4.70058E-001	-8.02626E-008	0.00000E+000	-4.70000E-001	5.29368E-005	6	..........a	-327.65
	1328	132.9	-4.80038E-001	-8.21373E-008	0.00000E+000	-4.80000E-001	5.63035E-005	6	..........a	-327.65
	1329	133	-4.90075E-001	-8.37898E-008	0.00000E+000	-4.90000E-001	5.24702E-005	6	..........a	-327.65
	1330	133.1	-5.00050E-001	-8.53278E-008	0.00000E+000	-5.00000E-001	5.03368E-005	6	..........a	-327.65
	1331	133.2	-5.10094E-001	-8.66779E-008	0.00000E+000	-5.10000E-001	5.35702E-005	6	..........a	-327.65
	1332	133.3	-5.20017E-001	-8.79035E-008	0.00000E+000	-5.20000E-001	5.68035E-005	6	..........a	-327.65
	1333	133.4	-5.30047E-001	-8.88245E-008	0.00000E+000	-5.30000E-001	5.05702E-005	6	..........a	-327.65
	1334	133.5	-5.40036E-001	-8.96772E-008	0.00000E+000	-5.40000E-001	5.06035E-005	6	..........a	-327.65
	1335	133.6	-5.50107E-001	-9.02660E-008	0.00000E+000	-5.50000E-001	5.56702E-005	6	..........a	-327.65
	1336	133.7	-5.60052E-001	-9.06976E-008	0.00000E+000	-5.60000E-001	5.38035E-005	6	..........a	-327.65
	1337	133.8	-5.70057E-001	-9.09547E-008	0.00000E+000	-5.70000E-001	5.34368E-005	6	..........a	-327.65
	1338	133.9	-5.80018E-001	-9.10681E-008	0.00000E+000	-5.80000E-001	4.60368E-005	6	..........a	-327.65
	1339	134	-5.90075E-001	-9.11340E-008	0.00000E+000	-5.90000E-001	5.84702E-005	6	..........a	-327.65
	1340	134.1	-6.00072E-001	-9.12064E-008	0.00000E+000	-6.00000E-001	5.46035E-005	6	..........a	-327.65
CURVE6	TABLE
	Pt	T	Vf	Im	Vu	Sig	Ach	IERange	Over	Temp
	#	s	V vs. Ref.	A	V	V	V	#	bits	deg C
	1341	134.2	-5.90115E-001	-5.63481E-008	0.00000E+000	-5.90000E-001	6.00702E-005	6	..........a	-327.65
	1342	134.3	-5.80064E-001	-4.55748E-008	0.00000E+000	-5.80000E-001	6.06035E-005	6	..........a	-327.65
	1343	134.4	-5.70093E-001	-3.79927E-008	0.00000E+000	-5.70000E-001	6.00369E-005	6	..........a	-327.65
	1344	134.5	-5.60093E-001	-3.22851E-008	0.00000E+000	-5.60000E-001	5.28368E-005	6	..........a	-327.65
	1345	134.6	-5.50146E-001	-2.78514E-008	0.00000E+000	-5.50000E-001	5.77035E-005	6	..........a	-327.65
	1346	134.7	-5.40079E-001	-2.43296E-008	0.00000E+000	-5.40000E-001	5.40368E-005	6	..........a	-327.65
	1347	134.8	-5.30096E-001	-2.15102E-008	0.00000E+000	-5.30000E-001	4.77369E-005	6	..........a	-327.65
	1348	134.9	-5.20072E-001	-1.92253E-008	0.00000E+000	-5.20000E-001	4.11035E-005	6	..........a	-327.65
	1349	135	-5.10139E-001	-1.73613E-008	0.00000E+000	-5.10000E-001	4.47702E-005	6	..........a	-327.65
	1350	135.1	-5.00098E-001	-1.57838E-008	0.00000E+000	-5.00000E-001	5.00035E-005	6	..........a	-327.65
	1351	135.2	-4.90126E-001	-1.44517E-008	0.00000E+000	-4.90000E-001	4.81035E-005	6	..........a	-327.65
	1352	135.3	-4.80094E-001	-1.32818E-008	0.00000E+000	-4.80000E-001	5.17702E-005	6	..........a	-327.65
	1353	135.4	-4.70123E-001	-1.22341E-008	0.00000E+000	-4.70000E-001	5.16702E-005	6	..........a	-327.65
	1354	135.5	-4.60105E-001	-1.12708E-008	0.00000E+000	-4.60000E-001	5.06035E-005	6	..........a	-327.65
	1355	135.6	-4.50112E-001	-1.03769E-008	0.00000E+000	-4.50000E-001	5.12702E-005	6	..........a	-327.65
	1356	135.7	-4.40101E-001	-9.51231E-009	0.00000E+000	-4.40000E-001	5.03035E-005	6	..........a	-327.65
	1357	135.8	-4.30111E-001	-8.68324E-009	0.00000E+000	-4.30000E-001	5.03702E-005	6	..........a	-327.65
	1358	135.9	-4.20107E-001	-7.85203E-009	0.00000E+000	-4.20000E-001	5.04035E-005	6	..........a	-327.65
	1359	136	-4.10120E-001	-7.03025E-009	0.00000E+000	-4.10000E-001	5.84369E-005	6	..........a	-327.65
	1360	136.1	-4.00032E-001	-6.20638E-009	0.00000E+000	-4.00000E-001	6.08368E-005	6	..........a	-327.65
	1361	136.2	-3.90075E-001	-5.36513E-009	0.00000E+000	-3.90000E-001	5.35702E-005	6	..........a	-327.65
	1362	136.3	-3.80013E-001	-4.51251E-009	0.00000E+000	-3.80000E-001	4.62368E-005	6	..........a	-327.65
	1363	136.4	-3.70099E-001	-3.64322E-009	0.00000E+000	-3.70000E-001	5.08702E-005	6	..........a	-327.65
	1364	136.5	-3.60021E-001	-2.73352E-009	0.00000E+000	-3.60000E-001	5.10369E-005	6	..........a	-327.65
	1365	136.6	-3.50046E-001	-1.84403E-009	0.00000E+000	-3.50000E-001	5.16035E-005	6	..........a	-327.65
	1366	136.7	-3.40024E-001	-9.66669E-010	0.00000E+000	-3.40000E-001	5.37702E-005	6	..........a	-327.65
	1367	136.8	-3.30055E-001	-5.52016E-011	0.00000E+000	-3.30000E-001	5.74702E-005	6	..........a	-327.65
	1368	136.9	-3.20011E-001	8.24290E-010	0.00000E+000	-3.20000E-001	5.57368E-005	6	..........a	-327.65
	1369	137	-3.10062E-001	1.73116E-009	0.00000E+000	-3.10000E-001	5.38368E-005	6	..........a	-327.65
	1370	137.1	-3.00019E-001	2.58521E-009	0.00000E+000	-3.00000E-001	5.74035E-005	6	..........a	-327.65
	1371	137.2	-2.90055E-001	3.43039E-009	0.00000E+000	-2.90000E-001	5.75035E-005	6	..........a	-327.65
	1372	137.3	-2.80037E-001	4.26373E-009	0.00000E+000	-2.80000E-001	5.11368E-005	6	..........a	-327.65
	1373	137.4	-2.70019E-001	5.06227E-009	0.00000E+000	-2.70000E-001	5.23035E-005	6	..........a	-327.65
	1374	137.5	-2.59994E-001	5.86094E-009	0.00000E+000	-2.60000E-001	5.48368E-005	6	..........a	-327.65
	1375	137.6	-2.50046E-001	6.62523E-009	0.00000E+000	-2.50000E-001	5.27035E-005	6	..........a	-327.65
	1376	137.7	-2.40012E-001	7.37331E-009	0.00000E+000	-2.40000E-001	5.36702E-005	6	..........a	-327.65
	1377	137.8	-2.30063E-001	8.11557E-009	0.00000E+000	-2.30000E-001	5.60702E-005	6	..........a	-327.65
	1378	137.9	-2.20000E-001	8.84575E-009	0.00000E+000	-2.20000E-001	5.41368E-005	6	..........a	-327.65
	1379	138	-2.10056E-001	9.57233E-009	0.00000E+000	-2.10000E-001	5.19035E-005	6	..........a	-327.65
	1380	138.1	-2.00031E-001	1.02756E-008	0.00000E+000	-2.00000E-001	4.96702E-005	6	..........a	-327.65
	1381	138.2	-1.90097E-001	1.09820E-008	0.00000E+000	-1.90000E-001	5.38035E-005	6	..........a	-327.65
	1382	138.3	-1.80009E-001	1.16608E-008	0.00000E+000	-1.80000E-001	5.49035E-005	6	..........a	-327.65
	1383	138.4	-1.70021E-001	1.23588E-008	0.00000E+000	-1.70000E-001	5.15368E-005	6	..........a	-327.65
	1384	138.5	-1.59991E-001	1.30053E-008	0.00000E+000	-1.60000E-001	5.45702E-005	6	..........a	-327.65
	1385	138.6	-1.50047E-001	1.36906E-008	0.00000E+000	-1.50000E-001	5.52702E-005	6	..........a	-327.65
	1386	138.7	-1.40027E-001	1.43784E-008	0.00000E+000	-1.40000E-001	5.10702E-005	6	..........a	-327.65
	1387	138.8	-1.30054E-001	1.50579E-008	0.00000E+000	-1.30000E-001	4.82368E-005	6	..........a	-327.65
	1388	138.9	-1.20012E-001	1.57658E-008	0.00000E+000	-1.20000E-001	4.94368E-005	6	..........a	-327.65
	1389	139	-1.10044E-001	1.64636E-008	0.00000E+000	-1.10000E-001	4.61368E-005	6	..........a	-327.65
	1390	139.1	-1.00027E-001	1.71513E-008	0.00000E+000	-1.00000E-001	4.44368E-005	6	..........a	-327.65
	1391	139.2	-9.00367E-002	1.78913E-008	0.00000E+000	-9.00000E-002	4.33368E-005	6	..........a	-327.65
	1392	139.3	-8.00205E-002	1.86159E-008	0.00000E+000	-8.00000E-002	4.65035E-005	6	..........a	-327.65
	1393	139.4	-7.00222E-002	1.93673E-008	0.00000E+000	-7.00000E-002	4.57368E-005	6	..........a	-327.65
	1394	139.5	-6.00164E-002	2.01232E-008	0.00000E+000	-6.00000E-002	4.69702E-005	6	..........a	-327.65
	1395	139.6	-5.00624E-002	2.09378E-008	0.00000E+000	-5.00000E-002	4.75035E-005	6	..........a	-327.65
	1396	139.7	-4.00198E-002	2.17337E-008	0.00000E+000	-4.00000E-002	4.77035E-005	6	..........a	-327.65
	1397	139.8	-3.00648E-002	2.25474E-008	0.00000E+000	-3.00000E-002	4.58702E-005	6	..........a	-327.65
	1398	139.9	-1.99966E-002	2.33807E-008	0.00000E+000	-2.00000E-002	4.35702E-005	6	..........a	-327.65
	1399	140	-1.00399E-002	2.42923E-008	0.00000E+000	-1.00000E-002	3.92369E-005	6	..........a	-327.65
	1400	140.1	5.54527E-005	2.52256E-008	0.00000E+000	7.45058E-009	3.60035E-005	6	..........a	-327.65