File: Figure 1F/data/15M.DTA
EXPLAIN
TAG	CV
TITLE	LABEL	Cyclic Voltammetry	Test &Identifier
DATE	LABEL	8/24/2021	Date
TIME	LABEL	15:39:40	Time
NOTES	NOTES	1	&Notes...

PSTAT	PSTAT	REF600P-40007	Potentiostat
VINIT	POTEN	0.00000E+000	F	Initial &E (V)
VLIMIT1	POTEN	8.00000E-001	F	Scan Limit &1 (V)
VLIMIT2	POTEN	-6.00000E-001	F	Scan Limit &2 (V)
VFINAL	POTEN	0.00000E+000	F	Final &E (V)
SCANRATE	QUANT	9.99998E+001	&Scan Rate (mV/s)
STEPSIZE	QUANT	1.00000E+001	St&ep Size (mV)
CYCLES	IQUANT	5	C&ycles (#)
IMODE	SELECTOR	0	I/E Range &Mode
IRANGE	QUANT	3.00000E-001	&Max Current (mA)
AREA	QUANT	2.87000E-005	Electrode &Area (cm^2)
ELECTRODETYPE	SELECTOR	0	Electrode Type
STRIPPING	TOGGLE	F	Used for Stripping
POLARITY	TOGGLE	F	Signal Polarity
CONDIT	TWOPARAM	F	1.50000E+001	0.00000E+000	Conditionin&g	Time(s)	E(V)
DELAY	TWOPARAM	T	5.00000E+000	0.00000E+000	Init. De&lay	Time(s)	Stab.(mV/s)
EQDELAY	QUANT	5.00000E+000	Equil. &Time (s)
IRCOMP	SELECTOR	0	IRCom&p
PFCOR	QUANT	5.00000E+001	PF Corr. (ohm)
SAMPLINGMODE	SELECTOR	2	Sampling &Mode
OCVCURVE	TABLE	19
	Pt	T	Vf	Vm	Ach	Over	Temp
	#	s	V vs. Ref.	V	V	bits	deg C
	0	0.258333	1.40678E-001	1.40678E-001	1.14447E-003	..........a	-327.65
	1	0.516667	1.40680E-001	1.40750E-001	1.13700E-003	..........a	-327.65
	2	0.775	1.40688E-001	1.40810E-001	1.14300E-003	..........a	-327.65
	3	1.03333	1.40711E-001	1.40873E-001	1.14247E-003	..........a	-327.65
	4	1.29167	1.40744E-001	1.40559E-001	1.14394E-003	..........a	-327.65
	5	1.55	1.40759E-001	1.40514E-001	1.13734E-003	..........a	-327.65
	6	1.80833	1.40729E-001	1.40715E-001	1.14747E-003	..........a	-327.65
	7	2.06667	1.40680E-001	1.40931E-001	1.14247E-003	..........a	-327.65
	8	2.325	1.40679E-001	1.41198E-001	1.14807E-003	..........a	-327.65
	9	2.58333	1.40770E-001	1.41522E-001	1.14994E-003	..........a	-327.65
	10	2.84167	1.40950E-001	1.41720E-001	1.14567E-003	..........a	-327.65
	11	3.1	1.41185E-001	1.41809E-001	1.14327E-003	..........a	-327.65
	12	3.35833	1.41425E-001	1.41897E-001	1.14360E-003	..........a	-327.65
	13	3.61667	1.41628E-001	1.42029E-001	1.14614E-003	..........a	-327.65
	14	3.875	1.41783E-001	1.42093E-001	1.14960E-003	..........a	-327.65
	15	4.13333	1.41904E-001	1.42234E-001	1.14660E-003	..........a	-327.65
	16	4.39167	1.42009E-001	1.42332E-001	1.14727E-003	..........a	-327.65
	17	4.65	1.42112E-001	1.42444E-001	1.13620E-003	..........a	-327.65
	18	4.90833	1.42218E-001	1.42582E-001	1.13867E-003	..........a	-327.65
EOC	QUANT	0.1422179	Open Circuit (V)
PSTATMODEL	IQUANT	7	Pstat Model
PSTATSECTION	LABEL	REF600P-40007	Pstat Section
PSTATSERIALNO	LABEL	40007	Pstat Serial Number
CTRLMODE	IQUANT	1	Control Mode
ELECTROMETER	IQUANT	0	RE=0 or CS=1
IESTAB	IQUANT	2	I/E Stability
CASPEED	IQUANT	4	Control Amp Speed
CONVENTION	IQUANT	1	Current Convention
ICHRANGE	IQUANT	2	Ich Range
ICHRANGEMODE	TOGGLE	F	Ich Auto Range
ICHOFFSETENABLE	TOGGLE	F	Ich Offset Enable
ICHOFFSET	QUANT	0	Ich Offset (V)
ICHFILTER	IQUANT	2	Ich Filter
VCHRANGE	IQUANT	2	Vch Range
VCHRANGEMODE	TOGGLE	F	Vch Auto Range
VCHOFFSETENABLE	TOGGLE	F	Vch Offset Enable
VCHOFFSET	QUANT	0	Vch Offset (V)
VCHFILTER	IQUANT	2	Vch Filter
ACHRANGE	IQUANT	2	Ach Range
ACHOFFSETENABLE	TOGGLE	F	Ach Offset Enable
ACHOFFSET	QUANT	0	Ach Offset (V)
ACHFILTER	IQUANT	1	Ach Filter
IERANGELOWERLIMIT	IQUANT	1	I/E Range Lower Limit
IERANGEMODE	TOGGLE	T	I/E AutoRange
IERANGE	IQUANT	8	I/E Range
POSFEEDENABLE	TOGGLE	F	Positive Feedback IR Comp
POSFEEDRESISTANCE	QUANT	0	Positive Feedback Resistance (ohm)
ACHSELECT	IQUANT	0	Ach Select
SENSECABLEID	IQUANT	7	Sense Cable ID
PWRCABLEID	IQUANT	7	Power Cable ID
DCCALDATE	LABEL	8/21/2021	DC Calibration Date
ACCALDATE	LABEL	8/21/2021	AC Calibration Date
THERMOSELECT	IQUANT	1	Thermo Select
FRAMEWORKVERSION	LABEL	7.8.1	Framework Version
INSTRUMENTVERSION	LABEL	4.40	Instrument Version
CURVE1	TABLE
	Pt	T	Vf	Im	Vu	Sig	Ach	IERange	Over	Temp
	#	s	V vs. Ref.	A	V	V	V	#	bits	deg C
	0	0.1	1.05426E-004	1.24442E-007	0.00000E+000	7.45058E-009	1.13430E-003	8	..........a	-327.65
	1	0.2	1.01185E-002	1.55123E-008	0.00000E+000	1.00000E-002	1.13857E-003	7	......s...a	-327.65
	2	0.3	2.00957E-002	8.61055E-009	0.00000E+000	2.00000E-002	1.12497E-003	6	......s...a	-327.65
	3	0.4	3.01012E-002	9.44696E-009	0.00000E+000	3.00000E-002	1.12580E-003	6	..........a	-327.65
	4	0.5	4.00831E-002	1.01519E-008	0.00000E+000	4.00000E-002	3.07702E-005	6	..........a	-327.65
	5	0.6	5.01101E-002	1.08463E-008	0.00000E+000	5.00000E-002	3.31035E-005	6	..........a	-327.65
	6	0.7	6.01223E-002	1.14957E-008	0.00000E+000	6.00000E-002	2.80035E-005	6	..........a	-327.65
	7	0.8	7.00860E-002	1.20898E-008	0.00000E+000	7.00000E-002	3.03368E-005	6	..........a	-327.65
	8	0.9	8.00970E-002	1.27045E-008	0.00000E+000	8.00000E-002	2.93369E-005	6	..........a	-327.65
	9	1	9.00507E-002	1.32901E-008	0.00000E+000	9.00000E-002	3.24702E-005	6	..........a	-327.65
	10	1.1	1.00105E-001	1.38803E-008	0.00000E+000	1.00000E-001	3.44702E-005	6	..........a	-327.65
	11	1.2	1.10085E-001	1.44648E-008	0.00000E+000	1.10000E-001	3.38368E-005	6	..........a	-327.65
	12	1.3	1.20080E-001	1.50254E-008	0.00000E+000	1.20000E-001	3.99368E-005	6	..........a	-327.65
	13	1.4	1.30092E-001	1.55647E-008	0.00000E+000	1.30000E-001	3.59035E-005	6	..........a	-327.65
	14	1.5	1.40126E-001	1.60995E-008	0.00000E+000	1.40000E-001	3.44702E-005	6	..........a	-327.65
	15	1.6	1.50098E-001	1.66927E-008	0.00000E+000	1.50000E-001	4.24368E-005	6	..........a	-327.65
	16	1.7	1.60088E-001	1.72976E-008	0.00000E+000	1.60000E-001	3.65035E-005	6	..........a	-327.65
	17	1.8	1.70081E-001	1.78813E-008	0.00000E+000	1.70000E-001	3.59035E-005	6	..........a	-327.65
	18	1.9	1.80093E-001	1.85118E-008	0.00000E+000	1.80000E-001	3.11702E-005	6	..........a	-327.65
	19	2	1.90100E-001	1.91509E-008	0.00000E+000	1.90000E-001	3.48702E-005	6	..........a	-327.65
	20	2.1	2.00086E-001	1.98514E-008	0.00000E+000	2.00000E-001	3.31702E-005	6	..........a	-327.65
	21	2.2	2.10089E-001	2.05636E-008	0.00000E+000	2.10000E-001	3.08368E-005	6	..........a	-327.65
	22	2.3	2.20114E-001	2.13411E-008	0.00000E+000	2.20000E-001	3.79368E-005	6	..........a	-327.65
	23	2.4	2.30084E-001	2.21012E-008	0.00000E+000	2.30000E-001	3.54368E-005	6	..........a	-327.65
	24	2.5	2.40104E-001	2.29299E-008	0.00000E+000	2.40000E-001	3.50369E-005	6	..........a	-327.65
	25	2.6	2.50100E-001	2.37483E-008	0.00000E+000	2.50000E-001	3.70702E-005	6	..........a	-327.65
	26	2.7	2.60091E-001	2.46049E-008	0.00000E+000	2.60000E-001	3.23035E-005	6	..........a	-327.65
	27	2.8	2.70047E-001	2.54292E-008	0.00000E+000	2.70000E-001	2.84368E-005	6	..........a	-327.65
	28	2.9	2.80077E-001	2.62693E-008	0.00000E+000	2.80000E-001	3.09702E-005	6	..........a	-327.65
	29	3	2.90102E-001	2.70998E-008	0.00000E+000	2.90000E-001	3.64702E-005	6	..........a	-327.65
	30	3.1	3.00120E-001	2.79042E-008	0.00000E+000	3.00000E-001	3.69702E-005	6	..........a	-327.65
	31	3.2	3.10069E-001	2.86929E-008	0.00000E+000	3.10000E-001	3.66035E-005	6	..........a	-327.65
	32	3.3	3.20076E-001	2.94684E-008	0.00000E+000	3.20000E-001	3.63702E-005	6	..........a	-327.65
	33	3.4	3.30080E-001	3.02377E-008	0.00000E+000	3.30000E-001	3.81702E-005	6	..........a	-327.65
	34	3.5	3.40096E-001	3.09344E-008	0.00000E+000	3.40000E-001	3.39702E-005	6	..........a	-327.65
	35	3.6	3.50080E-001	3.16214E-008	0.00000E+000	3.50000E-001	3.16368E-005	6	..........a	-327.65
	36	3.7	3.60068E-001	3.22894E-008	0.00000E+000	3.60000E-001	2.93702E-005	6	..........a	-327.65
	37	3.8	3.70089E-001	3.28844E-008	0.00000E+000	3.70000E-001	3.51368E-005	6	..........a	-327.65
	38	3.9	3.80090E-001	3.34881E-008	0.00000E+000	3.80000E-001	3.50035E-005	6	..........a	-327.65
	39	4	3.90087E-001	3.40298E-008	0.00000E+000	3.90000E-001	3.47368E-005	6	..........a	-327.65
	40	4.1	4.00103E-001	3.45468E-008	0.00000E+000	4.00000E-001	3.77368E-005	6	..........a	-327.65
	41	4.2	4.10140E-001	3.50342E-008	0.00000E+000	4.10000E-001	3.46035E-005	6	..........a	-327.65
	42	4.3	4.20158E-001	3.55243E-008	0.00000E+000	4.20000E-001	3.64035E-005	6	..........a	-327.65
	43	4.4	4.30135E-001	3.59146E-008	0.00000E+000	4.30000E-001	4.31368E-005	6	..........a	-327.65
	44	4.5	4.40149E-001	3.63570E-008	0.00000E+000	4.40000E-001	3.95702E-005	6	..........a	-327.65
	45	4.6	4.50149E-001	3.67676E-008	0.00000E+000	4.50000E-001	3.77702E-005	6	..........a	-327.65
	46	4.7	4.60167E-001	3.71521E-008	0.00000E+000	4.60000E-001	4.46035E-005	6	..........a	-327.65
	47	4.8	4.70149E-001	3.75587E-008	0.00000E+000	4.70000E-001	4.12702E-005	6	t.........a	-327.65
	48	4.9	4.80133E-001	3.79537E-008	0.00000E+000	4.80000E-001	3.74035E-005	6	..........a	-327.65
	49	5	4.90162E-001	3.83370E-008	0.00000E+000	4.90000E-001	3.77368E-005	6	..........a	-327.65
	50	5.1	5.00118E-001	3.87070E-008	0.00000E+000	5.00000E-001	3.93702E-005	6	..........a	-327.65
	51	5.2	5.10139E-001	3.90770E-008	0.00000E+000	5.10000E-001	3.84035E-005	6	..........a	-327.65
	52	5.3	5.20134E-001	3.94644E-008	0.00000E+000	5.20000E-001	3.66368E-005	6	..........a	-327.65
	53	5.4	5.30139E-001	3.97993E-008	0.00000E+000	5.30000E-001	3.90035E-005	6	..........a	-327.65
	54	5.5	5.40155E-001	4.02034E-008	0.00000E+000	5.40000E-001	4.08702E-005	6	..........a	-327.65
	55	5.6	5.50157E-001	4.06109E-008	0.00000E+000	5.50000E-001	4.04035E-005	6	..........a	-327.65
	56	5.7	5.60142E-001	4.09830E-008	0.00000E+000	5.60000E-001	4.02702E-005	6	..........a	-327.65
	57	5.8	5.70156E-001	4.13634E-008	0.00000E+000	5.70000E-001	3.68368E-005	6	..........a	-327.65
	58	5.9	5.80188E-001	4.17719E-008	0.00000E+000	5.80000E-001	3.26035E-005	6	..........a	-327.65
	59	6	5.90139E-001	4.21724E-008	0.00000E+000	5.90000E-001	3.46035E-005	6	..........a	-327.65
	60	6.1	6.00154E-001	4.25771E-008	0.00000E+000	6.00000E-001	3.22702E-005	6	..........a	-327.65
	61	6.2	6.10157E-001	4.29890E-008	0.00000E+000	6.10000E-001	3.24368E-005	6	..........a	-327.65
	62	6.3	6.20156E-001	4.34217E-008	0.00000E+000	6.20000E-001	3.24702E-005	6	..........a	-327.65
	63	6.4	6.30151E-001	4.38499E-008	0.00000E+000	6.30000E-001	3.35368E-005	6	..........a	-327.65
	64	6.5	6.40125E-001	4.42956E-008	0.00000E+000	6.40000E-001	3.84035E-005	6	..........a	-327.65
	65	6.6	6.50172E-001	4.47653E-008	0.00000E+000	6.50000E-001	3.61035E-005	6	..........a	-327.65
	66	6.7	6.60144E-001	4.52483E-008	0.00000E+000	6.60000E-001	4.00035E-005	6	..........a	-327.65
	67	6.8	6.70137E-001	4.57865E-008	0.00000E+000	6.70000E-001	3.84702E-005	6	..........a	-327.65
	68	6.9	6.80104E-001	4.63437E-008	0.00000E+000	6.80000E-001	3.61702E-005	6	..........a	-327.65
	69	7	6.90147E-001	4.69259E-008	0.00000E+000	6.90000E-001	3.53368E-005	6	..........a	-327.65
	70	7.1	7.00169E-001	4.75376E-008	0.00000E+000	7.00000E-001	3.78702E-005	6	..........a	-327.65
	71	7.2	7.10154E-001	4.81852E-008	0.00000E+000	7.10000E-001	3.70369E-005	6	..........a	-327.65
	72	7.3	7.20118E-001	4.88643E-008	0.00000E+000	7.20000E-001	4.26035E-005	6	..........a	-327.65
	73	7.4	7.30080E-001	4.96324E-008	0.00000E+000	7.30000E-001	3.60368E-005	6	..........a	-327.65
	74	7.5	7.40134E-001	5.04623E-008	0.00000E+000	7.40000E-001	4.09702E-005	6	..........a	-327.65
	75	7.6	7.50144E-001	5.13381E-008	0.00000E+000	7.50000E-001	3.86035E-005	6	..........a	-327.65
	76	7.7	7.60144E-001	5.23193E-008	0.00000E+000	7.60000E-001	3.76702E-005	6	..........a	-327.65
	77	7.8	7.70127E-001	5.34207E-008	0.00000E+000	7.70000E-001	3.99702E-005	6	..........a	-327.65
	78	7.9	7.80154E-001	5.45093E-008	0.00000E+000	7.80000E-001	3.59702E-005	6	..........a	-327.65
	79	8	7.90142E-001	5.57745E-008	0.00000E+000	7.90000E-001	3.91368E-005	6	..........a	-327.65
	80	8.1	8.00144E-001	5.71287E-008	0.00000E+000	8.00000E-001	4.16702E-005	6	..........a	-327.65
	81	8.2	7.90177E-001	2.38630E-008	0.00000E+000	7.90000E-001	3.67702E-005	6	..........a	-327.65
	82	8.3	7.80190E-001	1.58431E-008	0.00000E+000	7.80000E-001	3.54702E-005	6	..........a	-327.65
	83	8.4	7.70164E-001	1.02874E-008	0.00000E+000	7.70000E-001	3.51702E-005	6	..........a	-327.65
	84	8.5	7.60183E-001	6.15889E-009	0.00000E+000	7.60000E-001	4.33035E-005	6	..........a	-327.65
	85	8.6	7.50186E-001	3.00530E-009	0.00000E+000	7.50000E-001	4.02035E-005	6	..........a	-327.65
	86	8.7	7.40177E-001	4.93893E-010	0.00000E+000	7.40000E-001	4.23702E-005	6	..........a	-327.65
	87	8.8	7.30127E-001	-1.52307E-009	0.00000E+000	7.30000E-001	4.48368E-005	6	..........a	-327.65
	88	8.9	7.20167E-001	-3.18802E-009	0.00000E+000	7.20000E-001	4.30035E-005	6	..........a	-327.65
	89	9	7.10202E-001	-4.60884E-009	0.00000E+000	7.10000E-001	4.22369E-005	6	..........a	-327.65
	90	9.1	7.00218E-001	-5.83747E-009	0.00000E+000	7.00000E-001	4.58035E-005	6	..........a	-327.65
	91	9.2	6.90190E-001	-6.84763E-009	0.00000E+000	6.90000E-001	4.60035E-005	6	..........a	-327.65
	92	9.3	6.80149E-001	-7.71135E-009	0.00000E+000	6.80000E-001	4.16035E-005	6	..........a	-327.65
	93	9.4	6.70178E-001	-8.50899E-009	0.00000E+000	6.70000E-001	4.22369E-005	6	..........a	-327.65
	94	9.5	6.60189E-001	-9.19635E-009	0.00000E+000	6.60000E-001	4.42035E-005	6	..........a	-327.65
	95	9.6	6.50214E-001	-9.78126E-009	0.00000E+000	6.50000E-001	5.12702E-005	6	..........a	-327.65
	96	9.7	6.40161E-001	-1.03223E-008	0.00000E+000	6.40000E-001	4.85035E-005	6	..........a	-327.65
	97	9.8	6.30195E-001	-1.08109E-008	0.00000E+000	6.30000E-001	4.69368E-005	6	..........a	-327.65
	98	9.9	6.20199E-001	-1.12393E-008	0.00000E+000	6.20000E-001	4.54368E-005	6	..........a	-327.65
	99	10	6.10191E-001	-1.16264E-008	0.00000E+000	6.10000E-001	4.94368E-005	6	..........a	-327.65
	100	10.1	6.00194E-001	-1.19834E-008	0.00000E+000	6.00000E-001	5.02035E-005	6	..........a	-327.65
	101	10.2	5.90177E-001	-1.23079E-008	0.00000E+000	5.90000E-001	4.84035E-005	6	..........a	-327.65
	102	10.3	5.80232E-001	-1.26155E-008	0.00000E+000	5.80000E-001	4.18035E-005	6	..........a	-327.65
	103	10.4	5.70202E-001	-1.29126E-008	0.00000E+000	5.70000E-001	3.78035E-005	6	..........a	-327.65
	104	10.5	5.60181E-001	-1.31956E-008	0.00000E+000	5.60000E-001	4.11702E-005	6	..........a	-327.65
	105	10.6	5.50207E-001	-1.34534E-008	0.00000E+000	5.50000E-001	3.61035E-005	6	..........a	-327.65
	106	10.7	5.40201E-001	-1.36537E-008	0.00000E+000	5.40000E-001	3.92369E-005	6	..........a	-327.65
	107	10.8	5.30179E-001	-1.38900E-008	0.00000E+000	5.30000E-001	4.09702E-005	6	..........a	-327.65
	108	10.9	5.20177E-001	-1.40916E-008	0.00000E+000	5.20000E-001	4.29035E-005	6	..........a	-327.65
	109	11	5.10185E-001	-1.43095E-008	0.00000E+000	5.10000E-001	4.53702E-005	6	..........a	-327.65
	110	11.1	5.00159E-001	-1.44492E-008	0.00000E+000	5.00000E-001	4.15035E-005	6	..........a	-327.65
	111	11.2	4.90205E-001	-1.46422E-008	0.00000E+000	4.90000E-001	4.50368E-005	6	..........a	-327.65
	112	11.3	4.80173E-001	-1.47985E-008	0.00000E+000	4.80000E-001	4.45035E-005	6	..........a	-327.65
	113	11.4	4.70188E-001	-1.49213E-008	0.00000E+000	4.70000E-001	4.34368E-005	6	..........a	-327.65
	114	11.5	4.60217E-001	-1.50775E-008	0.00000E+000	4.60000E-001	4.21702E-005	6	..........a	-327.65
	115	11.6	4.50183E-001	-1.52164E-008	0.00000E+000	4.50000E-001	4.34702E-005	6	..........a	-327.65
	116	11.7	4.40184E-001	-1.53095E-008	0.00000E+000	4.40000E-001	5.02368E-005	6	..........a	-327.65
	117	11.8	4.30175E-001	-1.54291E-008	0.00000E+000	4.30000E-001	4.99702E-005	6	..........a	-327.65
	118	11.9	4.20204E-001	-1.55082E-008	0.00000E+000	4.20000E-001	5.19035E-005	6	..........a	-327.65
	119	12	4.10189E-001	-1.55952E-008	0.00000E+000	4.10000E-001	4.91035E-005	6	..........a	-327.65
	120	12.1	4.00159E-001	-1.56950E-008	0.00000E+000	4.00000E-001	4.77035E-005	6	..........a	-327.65
	121	12.2	3.90133E-001	-1.57879E-008	0.00000E+000	3.90000E-001	4.82035E-005	6	..........a	-327.65
	122	12.3	3.80137E-001	-1.58431E-008	0.00000E+000	3.80000E-001	4.89702E-005	6	..........a	-327.65
	123	12.4	3.70136E-001	-1.59214E-008	0.00000E+000	3.70000E-001	4.36368E-005	6	..........a	-327.65
	124	12.5	3.60109E-001	-1.59534E-008	0.00000E+000	3.60000E-001	4.22369E-005	6	..........a	-327.65
	125	12.6	3.50124E-001	-1.60419E-008	0.00000E+000	3.50000E-001	4.21702E-005	6	..........a	-327.65
	126	12.7	3.40140E-001	-1.60911E-008	0.00000E+000	3.40000E-001	4.35702E-005	6	..........a	-327.65
	127	12.8	3.30119E-001	-1.61350E-008	0.00000E+000	3.30000E-001	4.73702E-005	6	..........a	-327.65
	128	12.9	3.20124E-001	-1.62065E-008	0.00000E+000	3.20000E-001	4.97702E-005	6	..........a	-327.65
	129	13	3.10114E-001	-1.62731E-008	0.00000E+000	3.10000E-001	4.52368E-005	6	..........a	-327.65
	130	13.1	3.00165E-001	-1.63510E-008	0.00000E+000	3.00000E-001	3.98035E-005	6	..........a	-327.65
	131	13.2	2.90147E-001	-1.64184E-008	0.00000E+000	2.90000E-001	4.31368E-005	6	..........a	-327.65
	132	13.3	2.80117E-001	-1.65394E-008	0.00000E+000	2.80000E-001	4.31368E-005	6	..........a	-327.65
	133	13.4	2.70094E-001	-1.66352E-008	0.00000E+000	2.70000E-001	4.43035E-005	6	..........a	-327.65
	134	13.5	2.60138E-001	-1.67182E-008	0.00000E+000	2.60000E-001	4.51035E-005	6	..........a	-327.65
	135	13.6	2.50146E-001	-1.68624E-008	0.00000E+000	2.50000E-001	4.04368E-005	6	..........a	-327.65
	136	13.7	2.40148E-001	-1.70002E-008	0.00000E+000	2.40000E-001	4.57035E-005	6	..........a	-327.65
	137	13.8	2.30129E-001	-1.71437E-008	0.00000E+000	2.30000E-001	4.43035E-005	6	..........a	-327.65
	138	13.9	2.20158E-001	-1.73064E-008	0.00000E+000	2.20000E-001	4.21702E-005	6	..........a	-327.65
	139	14	2.10132E-001	-1.74992E-008	0.00000E+000	2.10000E-001	4.32035E-005	6	..........a	-327.65
	140	14.1	2.00125E-001	-1.76855E-008	0.00000E+000	2.00000E-001	4.88702E-005	6	..........a	-327.65
	141	14.2	1.90144E-001	-1.78804E-008	0.00000E+000	1.90000E-001	4.96369E-005	6	..........a	-327.65
	142	14.3	1.80132E-001	-1.81267E-008	0.00000E+000	1.80000E-001	5.09035E-005	6	..........a	-327.65
	143	14.4	1.70133E-001	-1.83758E-008	0.00000E+000	1.70000E-001	4.75369E-005	6	..........a	-327.65
	144	14.5	1.60128E-001	-1.86113E-008	0.00000E+000	1.60000E-001	5.00702E-005	6	..........a	-327.65
	145	14.6	1.50143E-001	-1.88943E-008	0.00000E+000	1.50000E-001	4.69702E-005	6	..........a	-327.65
	146	14.7	1.40166E-001	-1.91622E-008	0.00000E+000	1.40000E-001	5.22702E-005	6	..........a	-327.65
	147	14.8	1.30130E-001	-1.94447E-008	0.00000E+000	1.30000E-001	4.89368E-005	6	..........a	-327.65
	148	14.9	1.20120E-001	-1.97273E-008	0.00000E+000	1.20000E-001	4.92702E-005	6	..........a	-327.65
	149	15	1.10125E-001	-2.00215E-008	0.00000E+000	1.10000E-001	4.62702E-005	6	..........a	-327.65
	150	15.1	1.00143E-001	-2.03410E-008	0.00000E+000	1.00000E-001	4.34035E-005	6	..........a	-327.65
	151	15.2	9.00924E-002	-2.06399E-008	0.00000E+000	9.00000E-002	4.49368E-005	6	..........a	-327.65
	152	15.3	8.01327E-002	-2.09714E-008	0.00000E+000	8.00000E-002	4.84369E-005	6	..........a	-327.65
	153	15.4	7.01218E-002	-2.13004E-008	0.00000E+000	7.00000E-002	4.62035E-005	6	..........a	-327.65
	154	15.5	6.01607E-002	-2.16357E-008	0.00000E+000	6.00000E-002	4.64368E-005	6	..........a	-327.65
	155	15.6	5.01474E-002	-2.19831E-008	0.00000E+000	5.00000E-002	5.18369E-005	6	..........a	-327.65
	156	15.7	4.01190E-002	-2.23470E-008	0.00000E+000	4.00000E-002	4.37035E-005	6	..........a	-327.65
	157	15.8	3.01378E-002	-2.27187E-008	0.00000E+000	3.00000E-002	4.80368E-005	6	..........a	-327.65
	158	15.9	2.01280E-002	-2.31255E-008	0.00000E+000	2.00000E-002	4.91368E-005	6	..........a	-327.65
	159	16	1.01492E-002	-2.35099E-008	0.00000E+000	1.00000E-002	4.67035E-005	6	..........a	-327.65
	160	16.1	1.14429E-004	-2.39749E-008	0.00000E+000	7.45058E-009	4.98702E-005	6	..........a	-327.65
	161	16.2	-9.98832E-003	-2.44218E-008	0.00000E+000	-1.00000E-002	4.49368E-005	6	..........a	-327.65
	162	16.3	-1.99527E-002	-2.49032E-008	0.00000E+000	-2.00000E-002	4.83368E-005	6	..........a	-327.65
	163	16.4	-3.00112E-002	-2.53625E-008	0.00000E+000	-3.00000E-002	4.74702E-005	6	..........a	-327.65
	164	16.5	-3.99735E-002	-2.58440E-008	0.00000E+000	-4.00000E-002	4.88369E-005	6	..........a	-327.65
	165	16.6	-5.00179E-002	-2.63135E-008	0.00000E+000	-5.00000E-002	4.41368E-005	6	..........a	-327.65
	166	16.7	-5.99541E-002	-2.68845E-008	0.00000E+000	-6.00000E-002	4.27702E-005	6	..........a	-327.65
	167	16.8	-6.99762E-002	-2.75528E-008	0.00000E+000	-7.00000E-002	4.84035E-005	6	..........a	-327.65
	168	16.9	-7.99657E-002	-2.80558E-008	0.00000E+000	-8.00000E-002	5.37702E-005	6	..........a	-327.65
	169	17	-8.99920E-002	-2.87196E-008	0.00000E+000	-9.00000E-002	4.78035E-005	6	..........a	-327.65
	170	17.1	-9.99757E-002	-2.93915E-008	0.00000E+000	-1.00000E-001	4.73702E-005	6	..........a	-327.65
	171	17.2	-1.09995E-001	-3.02543E-008	0.00000E+000	-1.10000E-001	4.36035E-005	6	..........a	-327.65
	172	17.3	-1.19958E-001	-3.10288E-008	0.00000E+000	-1.20000E-001	5.09368E-005	6	..........a	-327.65
	173	17.4	-1.29996E-001	-3.17806E-008	0.00000E+000	-1.30000E-001	5.27702E-005	6	..........a	-327.65
	174	17.5	-1.39969E-001	-3.26641E-008	0.00000E+000	-1.40000E-001	5.32368E-005	6	..........a	-327.65
	175	17.6	-1.49992E-001	-3.36262E-008	0.00000E+000	-1.50000E-001	5.10369E-005	6	..........a	-327.65
	176	17.7	-1.59931E-001	-3.46742E-008	0.00000E+000	-1.60000E-001	5.24035E-005	6	..........a	-327.65
	177	17.8	-1.69965E-001	-3.57614E-008	0.00000E+000	-1.70000E-001	4.61702E-005	6	..........a	-327.65
	178	17.9	-1.79960E-001	-3.69307E-008	0.00000E+000	-1.80000E-001	4.63035E-005	6	..........a	-327.65
	179	18	-1.90044E-001	-3.80997E-008	0.00000E+000	-1.90000E-001	4.12368E-005	6	..........a	-327.65
	180	18.1	-1.99975E-001	-3.94626E-008	0.00000E+000	-2.00000E-001	4.61702E-005	6	..........a	-327.65
	181	18.2	-2.09992E-001	-4.06548E-008	0.00000E+000	-2.10000E-001	5.11035E-005	6	..........a	-327.65
	182	18.3	-2.19949E-001	-4.19034E-008	0.00000E+000	-2.20000E-001	5.12368E-005	6	..........a	-327.65
	183	18.4	-2.30005E-001	-4.32152E-008	0.00000E+000	-2.30000E-001	4.85035E-005	6	..........a	-327.65
	184	18.5	-2.39929E-001	-4.45543E-008	0.00000E+000	-2.40000E-001	4.50702E-005	6	..........a	-327.65
	185	18.6	-2.49986E-001	-4.57428E-008	0.00000E+000	-2.50000E-001	4.53035E-005	6	..........a	-327.65
	186	18.7	-2.59935E-001	-4.72398E-008	0.00000E+000	-2.60000E-001	4.95035E-005	6	..........a	-327.65
	187	18.8	-2.69959E-001	-4.87128E-008	0.00000E+000	-2.70000E-001	4.78702E-005	6	..........a	-327.65
	188	18.9	-2.79967E-001	-5.00848E-008	0.00000E+000	-2.80000E-001	5.01368E-005	6	..........a	-327.65
	189	19	-2.89976E-001	-5.13595E-008	0.00000E+000	-2.90000E-001	4.83368E-005	6	..........a	-327.65
	190	19.1	-2.99966E-001	-5.26106E-008	0.00000E+000	-3.00000E-001	5.58368E-005	6	..........a	-327.65
	191	19.2	-3.09993E-001	-5.40447E-008	0.00000E+000	-3.10000E-001	5.30035E-005	6	..........a	-327.65
	192	19.3	-3.19938E-001	-5.54326E-008	0.00000E+000	-3.20000E-001	4.92035E-005	6	..........a	-327.65
	193	19.4	-3.29988E-001	-5.69154E-008	0.00000E+000	-3.30000E-001	5.22368E-005	6	..........a	-327.65
	194	19.5	-3.39959E-001	-5.85061E-008	0.00000E+000	-3.40000E-001	5.17035E-005	6	..........a	-327.65
	195	19.6	-3.49984E-001	-6.01956E-008	0.00000E+000	-3.50000E-001	5.19702E-005	6	..........a	-327.65
	196	19.7	-3.59953E-001	-6.18503E-008	0.00000E+000	-3.60000E-001	5.31368E-005	6	..........a	-327.65
	197	19.8	-3.70031E-001	-6.36917E-008	0.00000E+000	-3.70000E-001	5.26702E-005	6	..........a	-327.65
	198	19.9	-3.79954E-001	-6.56087E-008	0.00000E+000	-3.80000E-001	5.06702E-005	6	..........a	-327.65
	199	20	-3.90015E-001	-6.77225E-008	0.00000E+000	-3.90000E-001	4.81702E-005	6	..........a	-327.65
	200	20.1	-3.99974E-001	-7.00170E-008	0.00000E+000	-4.00000E-001	4.58702E-005	6	..........a	-327.65
	201	20.2	-4.10064E-001	-7.24687E-008	0.00000E+000	-4.10000E-001	4.80368E-005	6	..........a	-327.65
	202	20.3	-4.20033E-001	-7.51081E-008	0.00000E+000	-4.20000E-001	4.80702E-005	6	..........a	-327.65
	203	20.4	-4.30059E-001	-7.80031E-008	0.00000E+000	-4.30000E-001	4.44702E-005	6	..........a	-327.65
	204	20.5	-4.40029E-001	-8.09488E-008	0.00000E+000	-4.40000E-001	4.87035E-005	6	..........a	-327.65
	205	20.6	-4.50060E-001	-8.40406E-008	0.00000E+000	-4.50000E-001	4.70368E-005	6	..........a	-327.65
	206	20.7	-4.60047E-001	-8.74044E-008	0.00000E+000	-4.60000E-001	3.84702E-005	6	..........a	-327.65
	207	20.8	-4.70058E-001	-9.06318E-008	0.00000E+000	-4.70000E-001	4.15702E-005	6	..........a	-327.65
	208	20.9	-4.80026E-001	-9.39076E-008	0.00000E+000	-4.80000E-001	5.14368E-005	6	..........a	-327.65
	209	21	-4.90057E-001	-9.71358E-008	0.00000E+000	-4.90000E-001	5.23368E-005	6	..........a	-327.65
	210	21.1	-5.00045E-001	-1.00273E-007	0.00000E+000	-5.00000E-001	5.15368E-005	6	..........a	-327.65
	211	21.2	-5.10083E-001	-1.03024E-007	0.00000E+000	-5.10000E-001	5.20035E-005	6	..........a	-327.65
	212	21.3	-5.19969E-001	-1.05772E-007	0.00000E+000	-5.20000E-001	4.74035E-005	6	..........a	-327.65
	213	21.4	-5.30034E-001	-1.08333E-007	0.00000E+000	-5.30000E-001	4.78368E-005	6	..........a	-327.65
	214	21.5	-5.40023E-001	-1.10608E-007	0.00000E+000	-5.40000E-001	5.07368E-005	6	..........a	-327.65
	215	21.6	-5.50090E-001	-1.12589E-007	0.00000E+000	-5.50000E-001	4.56368E-005	6	..........a	-327.65
	216	21.7	-5.60029E-001	-1.14319E-007	0.00000E+000	-5.60000E-001	4.94702E-005	6	..........a	-327.65
	217	21.8	-5.70037E-001	-1.15733E-007	0.00000E+000	-5.70000E-001	4.12702E-005	6	..........a	-327.65
	218	21.9	-5.80009E-001	-1.16772E-007	0.00000E+000	-5.80000E-001	4.93035E-005	6	..........a	-327.65
	219	22	-5.90068E-001	-1.17492E-007	0.00000E+000	-5.90000E-001	4.61035E-005	6	..........a	-327.65
	220	22.1	-6.00046E-001	-1.18015E-007	0.00000E+000	-6.00000E-001	5.10369E-005	6	..........a	-327.65
CURVE2	TABLE
	Pt	T	Vf	Im	Vu	Sig	Ach	IERange	Over	Temp
	#	s	V vs. Ref.	A	V	V	V	#	bits	deg C
	221	22.2	-5.90111E-001	-7.96003E-008	0.00000E+000	-5.90000E-001	5.37035E-005	6	..........a	-327.65
	222	22.3	-5.80057E-001	-6.51360E-008	0.00000E+000	-5.80000E-001	4.66035E-005	6	..........a	-327.65
	223	22.4	-5.70082E-001	-5.47636E-008	0.00000E+000	-5.70000E-001	4.84702E-005	6	..........a	-327.65
	224	22.5	-5.60077E-001	-4.69083E-008	0.00000E+000	-5.60000E-001	5.29702E-005	6	..........a	-327.65
	225	22.6	-5.50136E-001	-4.06725E-008	0.00000E+000	-5.50000E-001	5.52368E-005	6	..........a	-327.65
	226	22.7	-5.40063E-001	-3.56885E-008	0.00000E+000	-5.40000E-001	4.40035E-005	6	..........a	-327.65
	227	22.8	-5.30084E-001	-3.15645E-008	0.00000E+000	-5.30000E-001	4.58702E-005	6	..........a	-327.65
	228	22.9	-5.20026E-001	-2.81325E-008	0.00000E+000	-5.20000E-001	4.48702E-005	6	..........a	-327.65
	229	23	-5.10128E-001	-2.53027E-008	0.00000E+000	-5.10000E-001	4.14368E-005	6	..........a	-327.65
	230	23.1	-5.00090E-001	-2.29329E-008	0.00000E+000	-5.00000E-001	4.06368E-005	6	..........a	-327.65
	231	23.2	-4.90122E-001	-2.08573E-008	0.00000E+000	-4.90000E-001	4.08035E-005	6	..........a	-327.65
	232	23.3	-4.80078E-001	-1.91196E-008	0.00000E+000	-4.80000E-001	4.88369E-005	6	..........a	-327.65
	233	23.4	-4.70122E-001	-1.76004E-008	0.00000E+000	-4.70000E-001	4.25702E-005	6	..........a	-327.65
	234	23.5	-4.60096E-001	-1.62745E-008	0.00000E+000	-4.60000E-001	4.56702E-005	6	..........a	-327.65
	235	23.6	-4.50109E-001	-1.50513E-008	0.00000E+000	-4.50000E-001	4.36368E-005	6	..........a	-327.65
	236	23.7	-4.40080E-001	-1.39401E-008	0.00000E+000	-4.40000E-001	4.24035E-005	6	..........a	-327.65
	237	23.8	-4.30108E-001	-1.28857E-008	0.00000E+000	-4.30000E-001	4.68702E-005	6	..........a	-327.65
	238	23.9	-4.20083E-001	-1.18992E-008	0.00000E+000	-4.20000E-001	4.76702E-005	6	..........a	-327.65
	239	24	-4.10115E-001	-1.10027E-008	0.00000E+000	-4.10000E-001	4.79035E-005	6	..........a	-327.65
	240	24.1	-4.00026E-001	-1.01149E-008	0.00000E+000	-4.00000E-001	4.63368E-005	6	..........a	-327.65
	241	24.2	-3.90065E-001	-9.24480E-009	0.00000E+000	-3.90000E-001	4.73035E-005	6	..........a	-327.65
	242	24.3	-3.80011E-001	-8.42066E-009	0.00000E+000	-3.80000E-001	4.98035E-005	6	..........a	-327.65
	243	24.4	-3.70090E-001	-7.60455E-009	0.00000E+000	-3.70000E-001	4.34035E-005	6	..........a	-327.65
	244	24.5	-3.60013E-001	-6.79182E-009	0.00000E+000	-3.60000E-001	4.71702E-005	6	..........a	-327.65
	245	24.6	-3.50038E-001	-6.00425E-009	0.00000E+000	-3.50000E-001	4.69368E-005	6	..........a	-327.65
	246	24.7	-3.40007E-001	-5.19034E-009	0.00000E+000	-3.40000E-001	4.57368E-005	6	..........a	-327.65
	247	24.8	-3.30043E-001	-4.41952E-009	0.00000E+000	-3.30000E-001	5.12702E-005	6	..........a	-327.65
	248	24.9	-3.19999E-001	-3.60401E-009	0.00000E+000	-3.20000E-001	4.67702E-005	6	..........a	-327.65
	249	25	-3.10052E-001	-2.81285E-009	0.00000E+000	-3.10000E-001	4.72368E-005	6	..........a	-327.65
	250	25.1	-3.00018E-001	-2.03125E-009	0.00000E+000	-3.00000E-001	4.73035E-005	6	..........a	-327.65
	251	25.2	-2.90052E-001	-1.22788E-009	0.00000E+000	-2.90000E-001	4.41035E-005	6	..........a	-327.65
	252	25.3	-2.80024E-001	-3.86166E-010	0.00000E+000	-2.80000E-001	4.58368E-005	6	..........a	-327.65
	253	25.4	-2.70015E-001	4.19905E-010	0.00000E+000	-2.70000E-001	4.20368E-005	6	..........a	-327.65
	254	25.5	-2.59989E-001	1.25478E-009	0.00000E+000	-2.60000E-001	4.22702E-005	6	..........a	-327.65
	255	25.6	-2.50040E-001	2.06315E-009	0.00000E+000	-2.50000E-001	4.65368E-005	6	..........a	-327.65
	256	25.7	-2.39985E-001	2.87443E-009	0.00000E+000	-2.40000E-001	4.39035E-005	6	..........a	-327.65
	257	25.8	-2.30056E-001	3.68626E-009	0.00000E+000	-2.30000E-001	4.15368E-005	6	..........a	-327.65
	258	25.9	-2.19995E-001	4.51951E-009	0.00000E+000	-2.20000E-001	3.94368E-005	6	..........a	-327.65
	259	26	-2.10045E-001	5.35432E-009	0.00000E+000	-2.10000E-001	4.44368E-005	6	..........a	-327.65
	260	26.1	-2.00024E-001	6.16493E-009	0.00000E+000	-2.00000E-001	3.84702E-005	6	..........a	-327.65
	261	26.2	-1.90094E-001	6.95449E-009	0.00000E+000	-1.90000E-001	4.61035E-005	6	..........a	-327.65
	262	26.3	-1.80008E-001	7.66083E-009	0.00000E+000	-1.80000E-001	4.19035E-005	6	..........a	-327.65
	263	26.4	-1.70015E-001	8.56173E-009	0.00000E+000	-1.70000E-001	3.98368E-005	6	..........a	-327.65
	264	26.5	-1.59979E-001	9.29371E-009	0.00000E+000	-1.60000E-001	3.91035E-005	6	..........a	-327.65
	265	26.6	-1.50044E-001	1.00984E-008	0.00000E+000	-1.50000E-001	3.96035E-005	6	..........a	-327.65
	266	26.7	-1.40020E-001	1.08836E-008	0.00000E+000	-1.40000E-001	4.51035E-005	6	..........a	-327.65
	267	26.8	-1.30043E-001	1.16432E-008	0.00000E+000	-1.30000E-001	4.29035E-005	6	..........a	-327.65
	268	26.9	-1.20003E-001	1.24237E-008	0.00000E+000	-1.20000E-001	4.16035E-005	6	..........a	-327.65
	269	27	-1.10037E-001	1.31910E-008	0.00000E+000	-1.10000E-001	4.26702E-005	6	..........a	-327.65
	270	27.1	-1.00023E-001	1.39643E-008	0.00000E+000	-1.00000E-001	3.85702E-005	6	..........a	-327.65
	271	27.2	-9.00358E-002	1.47791E-008	0.00000E+000	-9.00000E-002	4.37702E-005	6	..........a	-327.65
	272	27.3	-8.00132E-002	1.55687E-008	0.00000E+000	-8.00000E-002	4.06035E-005	6	..........a	-327.65
	273	27.4	-7.00247E-002	1.63800E-008	0.00000E+000	-7.00000E-002	4.63035E-005	6	..........a	-327.65
	274	27.5	-6.00110E-002	1.71858E-008	0.00000E+000	-6.00000E-002	3.96368E-005	6	..........a	-327.65
	275	27.6	-5.00617E-002	1.80434E-008	0.00000E+000	-5.00000E-002	4.11035E-005	6	..........a	-327.65
	276	27.7	-4.00207E-002	1.89182E-008	0.00000E+000	-4.00000E-002	4.03368E-005	6	..........a	-327.65
	277	27.8	-3.00537E-002	1.98082E-008	0.00000E+000	-3.00000E-002	4.53702E-005	6	..........a	-327.65
	278	27.9	-2.00006E-002	2.07448E-008	0.00000E+000	-2.00000E-002	3.97035E-005	6	..........a	-327.65
	279	28	-1.00416E-002	2.16581E-008	0.00000E+000	-1.00000E-002	3.64035E-005	6	..........a	-327.65
	280	28.1	6.90883E-005	2.26296E-008	0.00000E+000	7.45058E-009	3.36702E-005	6	..........a	-327.65
	281	28.2	1.01039E-002	2.36182E-008	0.00000E+000	1.00000E-002	4.11035E-005	6	..........a	-327.65
	282	28.3	2.00857E-002	2.46524E-008	0.00000E+000	2.00000E-002	3.67035E-005	6	..........a	-327.65
	283	28.4	3.00942E-002	2.56894E-008	0.00000E+000	3.00000E-002	3.20035E-005	6	..........a	-327.65
	284	28.5	4.00741E-002	2.68156E-008	0.00000E+000	4.00000E-002	3.27368E-005	6	..........a	-327.65
	285	28.6	5.01060E-002	2.80138E-008	0.00000E+000	5.00000E-002	3.82035E-005	6	..........a	-327.65
	286	28.7	6.01079E-002	2.92460E-008	0.00000E+000	6.00000E-002	3.35702E-005	6	..........a	-327.65
	287	28.8	7.00827E-002	3.05986E-008	0.00000E+000	7.00000E-002	3.67368E-005	6	..........a	-327.65
	288	28.9	8.00978E-002	3.21547E-008	0.00000E+000	8.00000E-002	3.50702E-005	6	..........a	-327.65
	289	29	9.00573E-002	3.44686E-008	0.00000E+000	9.00000E-002	3.78368E-005	6	..........a	-327.65
	290	29.1	1.00099E-001	3.55330E-008	0.00000E+000	1.00000E-001	3.61702E-005	6	..........a	-327.65
	291	29.2	1.10084E-001	3.61761E-008	0.00000E+000	1.10000E-001	3.82035E-005	6	..........a	-327.65
	292	29.3	1.20079E-001	3.75018E-008	0.00000E+000	1.20000E-001	3.70035E-005	6	..........a	-327.65
	293	29.4	1.30091E-001	3.86009E-008	0.00000E+000	1.30000E-001	4.33035E-005	6	..........a	-327.65
	294	29.5	1.40120E-001	3.98871E-008	0.00000E+000	1.40000E-001	4.11035E-005	6	..........a	-327.65
	295	29.6	1.50099E-001	4.12493E-008	0.00000E+000	1.50000E-001	4.13368E-005	6	..........a	-327.65
	296	29.7	1.60087E-001	4.27071E-008	0.00000E+000	1.60000E-001	4.36702E-005	6	..........a	-327.65
	297	29.8	1.70081E-001	4.41454E-008	0.00000E+000	1.70000E-001	4.58035E-005	6	..........a	-327.65
	298	29.9	1.80094E-001	4.55999E-008	0.00000E+000	1.80000E-001	4.62702E-005	6	..........a	-327.65
	299	30	1.90103E-001	4.70432E-008	0.00000E+000	1.90000E-001	4.02035E-005	6	..........a	-327.65
	300	30.1	2.00088E-001	4.85258E-008	0.00000E+000	2.00000E-001	4.17702E-005	6	..........a	-327.65
	301	30.2	2.10088E-001	4.99643E-008	0.00000E+000	2.10000E-001	4.36035E-005	6	..........a	-327.65
	302	30.3	2.20122E-001	5.13702E-008	0.00000E+000	2.20000E-001	4.38702E-005	6	..........a	-327.65
	303	30.4	2.30086E-001	5.27301E-008	0.00000E+000	2.30000E-001	4.41368E-005	6	..........a	-327.65
	304	30.5	2.40107E-001	5.40817E-008	0.00000E+000	2.40000E-001	4.71368E-005	6	..........a	-327.65
	305	30.6	2.50105E-001	5.53763E-008	0.00000E+000	2.50000E-001	4.44368E-005	6	..........a	-327.65
	306	30.7	2.60098E-001	5.66059E-008	0.00000E+000	2.60000E-001	4.64368E-005	6	..........a	-327.65
	307	30.8	2.70057E-001	5.77576E-008	0.00000E+000	2.70000E-001	4.59035E-005	6	..........a	-327.65
	308	30.9	2.80081E-001	5.88450E-008	0.00000E+000	2.80000E-001	4.83368E-005	6	..........a	-327.65
	309	31	2.90107E-001	5.99054E-008	0.00000E+000	2.90000E-001	4.47035E-005	6	..........a	-327.65
	310	31.1	3.00124E-001	6.08100E-008	0.00000E+000	3.00000E-001	4.20368E-005	6	..........a	-327.65
	311	31.2	3.10077E-001	6.16694E-008	0.00000E+000	3.10000E-001	4.48368E-005	6	..........a	-327.65
	312	31.3	3.20079E-001	6.24244E-008	0.00000E+000	3.20000E-001	4.68369E-005	6	..........a	-327.65
	313	31.4	3.30081E-001	6.30247E-008	0.00000E+000	3.30000E-001	4.28368E-005	6	..........a	-327.65
	314	31.5	3.40097E-001	6.35440E-008	0.00000E+000	3.40000E-001	4.59702E-005	6	..........a	-327.65
	315	31.6	3.50084E-001	6.39750E-008	0.00000E+000	3.50000E-001	3.99702E-005	6	..........a	-327.65
	316	31.7	3.60070E-001	6.42906E-008	0.00000E+000	3.60000E-001	4.52368E-005	6	..........a	-327.65
	317	31.8	3.70093E-001	6.44786E-008	0.00000E+000	3.70000E-001	4.35035E-005	6	..........a	-327.65
	318	31.9	3.80092E-001	6.45788E-008	0.00000E+000	3.80000E-001	4.91368E-005	6	..........a	-327.65
	319	32	3.90090E-001	6.46076E-008	0.00000E+000	3.90000E-001	4.99035E-005	6	..........a	-327.65
	320	32.1	4.00110E-001	6.45094E-008	0.00000E+000	4.00000E-001	4.49702E-005	6	..........a	-327.65
	321	32.2	4.10142E-001	6.43563E-008	0.00000E+000	4.10000E-001	4.13368E-005	6	..........a	-327.65
	322	32.3	4.20156E-001	6.41386E-008	0.00000E+000	4.20000E-001	3.83035E-005	6	..........a	-327.65
	323	32.4	4.30138E-001	6.38694E-008	0.00000E+000	4.30000E-001	3.95702E-005	6	..........a	-327.65
	324	32.5	4.40148E-001	6.35799E-008	0.00000E+000	4.40000E-001	3.92702E-005	6	..........a	-327.65
	325	32.6	4.50144E-001	6.32120E-008	0.00000E+000	4.50000E-001	3.66702E-005	6	..........a	-327.65
	326	32.7	4.60168E-001	6.29108E-008	0.00000E+000	4.60000E-001	3.75035E-005	6	..........a	-327.65
	327	32.8	4.70149E-001	6.26117E-008	0.00000E+000	4.70000E-001	4.21368E-005	6	..........a	-327.65
	328	32.9	4.80134E-001	6.22816E-008	0.00000E+000	4.80000E-001	4.64035E-005	6	..........a	-327.65
	329	33	4.90166E-001	6.19579E-008	0.00000E+000	4.90000E-001	4.34368E-005	6	..........a	-327.65
	330	33.1	5.00119E-001	6.16659E-008	0.00000E+000	5.00000E-001	4.24702E-005	6	..........a	-327.65
	331	33.2	5.10144E-001	6.13987E-008	0.00000E+000	5.10000E-001	4.04368E-005	6	..........a	-327.65
	332	33.3	5.20135E-001	6.12339E-008	0.00000E+000	5.20000E-001	3.47702E-005	6	..........a	-327.65
	333	33.4	5.30142E-001	6.10129E-008	0.00000E+000	5.30000E-001	4.31368E-005	6	..........a	-327.65
	334	33.5	5.40162E-001	6.08612E-008	0.00000E+000	5.40000E-001	3.92369E-005	6	..........a	-327.65
	335	33.6	5.50167E-001	6.07341E-008	0.00000E+000	5.50000E-001	3.84035E-005	6	..........a	-327.65
	336	33.7	5.60144E-001	6.06354E-008	0.00000E+000	5.60000E-001	3.57368E-005	6	..........a	-327.65
	337	33.8	5.70163E-001	6.05597E-008	0.00000E+000	5.70000E-001	4.03035E-005	6	..........a	-327.65
	338	33.9	5.80198E-001	6.05125E-008	0.00000E+000	5.80000E-001	3.98035E-005	6	..........a	-327.65
	339	34	5.90144E-001	6.05243E-008	0.00000E+000	5.90000E-001	4.14702E-005	6	..........a	-327.65
	340	34.1	6.00160E-001	6.05226E-008	0.00000E+000	6.00000E-001	4.06035E-005	6	..........a	-327.65
	341	34.2	6.10157E-001	6.05620E-008	0.00000E+000	6.10000E-001	4.03702E-005	6	..........a	-327.65
	342	34.3	6.20164E-001	6.06528E-008	0.00000E+000	6.20000E-001	4.07702E-005	6	..........a	-327.65
	343	34.4	6.30158E-001	6.07907E-008	0.00000E+000	6.30000E-001	4.65368E-005	6	..........a	-327.65
	344	34.5	6.40125E-001	6.09043E-008	0.00000E+000	6.40000E-001	4.07035E-005	6	..........a	-327.65
	345	34.6	6.50176E-001	6.11083E-008	0.00000E+000	6.50000E-001	3.69702E-005	6	..........a	-327.65
	346	34.7	6.60150E-001	6.12583E-008	0.00000E+000	6.60000E-001	4.31035E-005	6	..........a	-327.65
	347	34.8	6.70141E-001	6.15209E-008	0.00000E+000	6.70000E-001	4.67702E-005	6	..........a	-327.65
	348	34.9	6.80112E-001	6.18056E-008	0.00000E+000	6.80000E-001	4.66369E-005	6	..........a	-327.65
	349	35	6.90150E-001	6.21268E-008	0.00000E+000	6.90000E-001	4.85368E-005	6	..........a	-327.65
	350	35.1	7.00179E-001	6.24991E-008	0.00000E+000	7.00000E-001	4.28702E-005	6	..........a	-327.65
	351	35.2	7.10168E-001	6.29188E-008	0.00000E+000	7.10000E-001	4.38702E-005	6	..........a	-327.65
	352	35.3	7.20128E-001	6.33732E-008	0.00000E+000	7.20000E-001	4.14368E-005	6	..........a	-327.65
	353	35.4	7.30097E-001	6.39272E-008	0.00000E+000	7.30000E-001	4.10702E-005	6	..........a	-327.65
	354	35.5	7.40135E-001	6.44920E-008	0.00000E+000	7.40000E-001	3.89035E-005	6	..........a	-327.65
	355	35.6	7.50150E-001	6.51271E-008	0.00000E+000	7.50000E-001	4.44702E-005	6	..........a	-327.65
	356	35.7	7.60147E-001	6.58613E-008	0.00000E+000	7.60000E-001	4.07035E-005	6	..........a	-327.65
	357	35.8	7.70131E-001	6.67153E-008	0.00000E+000	7.70000E-001	4.08702E-005	6	..........a	-327.65
	358	35.9	7.80157E-001	6.76150E-008	0.00000E+000	7.80000E-001	4.14035E-005	6	..........a	-327.65
	359	36	7.90147E-001	6.86319E-008	0.00000E+000	7.90000E-001	4.21368E-005	6	..........a	-327.65
	360	36.1	8.00146E-001	6.97725E-008	0.00000E+000	8.00000E-001	4.60702E-005	6	..........a	-327.65
	361	36.2	7.90187E-001	3.34141E-008	0.00000E+000	7.90000E-001	4.60702E-005	6	..........a	-327.65
	362	36.3	7.80200E-001	2.35531E-008	0.00000E+000	7.80000E-001	4.35035E-005	6	..........a	-327.65
	363	36.4	7.70173E-001	1.66803E-008	0.00000E+000	7.70000E-001	4.27702E-005	6	..........a	-327.65
	364	36.5	7.60179E-001	1.15133E-008	0.00000E+000	7.60000E-001	4.07368E-005	6	..........a	-327.65
	365	36.6	7.50187E-001	7.44484E-009	0.00000E+000	7.50000E-001	4.49368E-005	6	..........a	-327.65
	366	36.7	7.40174E-001	4.21942E-009	0.00000E+000	7.40000E-001	4.83702E-005	6	..........a	-327.65
	367	36.8	7.30126E-001	1.59798E-009	0.00000E+000	7.30000E-001	4.69035E-005	6	..........a	-327.65
	368	36.9	7.20168E-001	-5.69253E-010	0.00000E+000	7.20000E-001	4.64702E-005	6	..........a	-327.65
	369	37	7.10207E-001	-2.37102E-009	0.00000E+000	7.10000E-001	4.81368E-005	6	..........a	-327.65
[...]
	1204	120.5	7.60183E-001	9.85524E-009	0.00000E+000	7.60000E-001	4.01035E-005	6	..........a	-327.65
	1205	120.6	7.50189E-001	5.90638E-009	0.00000E+000	7.50000E-001	4.16368E-005	6	..........a	-327.65
	1206	120.7	7.40176E-001	2.77356E-009	0.00000E+000	7.40000E-001	4.64035E-005	6	..........a	-327.65
	1207	120.8	7.30131E-001	2.35617E-010	0.00000E+000	7.30000E-001	4.80368E-005	6	..........a	-327.65
	1208	120.9	7.20168E-001	-1.90051E-009	0.00000E+000	7.20000E-001	4.84035E-005	6	..........a	-327.65
	1209	121	7.10207E-001	-3.67073E-009	0.00000E+000	7.10000E-001	5.30368E-005	6	..........a	-327.65
	1210	121.1	7.00220E-001	-5.17751E-009	0.00000E+000	7.00000E-001	5.05035E-005	6	..........a	-327.65
	1211	121.2	6.90192E-001	-6.49843E-009	0.00000E+000	6.90000E-001	5.40035E-005	6	..........a	-327.65
	1212	121.3	6.80151E-001	-7.61012E-009	0.00000E+000	6.80000E-001	4.86702E-005	6	..........a	-327.65
	1213	121.4	6.70180E-001	-8.60241E-009	0.00000E+000	6.70000E-001	4.90035E-005	6	..........a	-327.65
	1214	121.5	6.60187E-001	-9.48291E-009	0.00000E+000	6.60000E-001	4.99035E-005	6	..........a	-327.65
	1215	121.6	6.50213E-001	-1.02335E-008	0.00000E+000	6.50000E-001	5.29702E-005	6	..........a	-327.65
	1216	121.7	6.40160E-001	-1.09199E-008	0.00000E+000	6.40000E-001	5.39702E-005	6	..........a	-327.65
	1217	121.8	6.30195E-001	-1.15539E-008	0.00000E+000	6.30000E-001	5.08368E-005	6	..........a	-327.65
	1218	121.9	6.20195E-001	-1.21157E-008	0.00000E+000	6.20000E-001	4.91702E-005	6	..........a	-327.65
	1219	122	6.10190E-001	-1.26396E-008	0.00000E+000	6.10000E-001	4.93702E-005	6	..........a	-327.65
	1220	122.1	6.00192E-001	-1.31069E-008	0.00000E+000	6.00000E-001	5.23702E-005	6	..........a	-327.65
	1221	122.2	5.90175E-001	-1.35649E-008	0.00000E+000	5.90000E-001	5.39368E-005	6	..........a	-327.65
	1222	122.3	5.80235E-001	-1.39595E-008	0.00000E+000	5.80000E-001	4.70035E-005	6	..........a	-327.65
	1223	122.4	5.70200E-001	-1.43301E-008	0.00000E+000	5.70000E-001	4.85702E-005	6	..........a	-327.65
	1224	122.5	5.60181E-001	-1.46756E-008	0.00000E+000	5.60000E-001	4.97035E-005	6	..........a	-327.65
	1225	122.6	5.50207E-001	-1.49994E-008	0.00000E+000	5.50000E-001	4.94035E-005	6	..........a	-327.65
	1226	122.7	5.40204E-001	-1.53376E-008	0.00000E+000	5.40000E-001	4.96035E-005	6	..........a	-327.65
	1227	122.8	5.30184E-001	-1.56281E-008	0.00000E+000	5.30000E-001	5.33702E-005	6	..........a	-327.65
	1228	122.9	5.20180E-001	-1.59069E-008	0.00000E+000	5.20000E-001	5.00702E-005	6	..........a	-327.65
	1229	123	5.10185E-001	-1.61878E-008	0.00000E+000	5.10000E-001	5.10369E-005	6	..........a	-327.65
	1230	123.1	5.00162E-001	-1.64022E-008	0.00000E+000	5.00000E-001	4.90702E-005	6	..........a	-327.65
	1231	123.2	4.90208E-001	-1.66775E-008	0.00000E+000	4.90000E-001	4.82702E-005	6	..........a	-327.65
	1232	123.3	4.80177E-001	-1.68801E-008	0.00000E+000	4.80000E-001	4.79368E-005	6	..........a	-327.65
	1233	123.4	4.70190E-001	-1.70767E-008	0.00000E+000	4.70000E-001	5.15702E-005	6	..........a	-327.65
	1234	123.5	4.60214E-001	-1.72624E-008	0.00000E+000	4.60000E-001	5.01368E-005	6	..........a	-327.65
	1235	123.6	4.50178E-001	-1.74573E-008	0.00000E+000	4.50000E-001	4.93702E-005	6	..........a	-327.65
	1236	123.7	4.40185E-001	-1.76085E-008	0.00000E+000	4.40000E-001	5.20035E-005	6	..........a	-327.65
	1237	123.8	4.30170E-001	-1.77868E-008	0.00000E+000	4.30000E-001	5.25035E-005	6	..........a	-327.65
	1238	123.9	4.20201E-001	-1.79439E-008	0.00000E+000	4.20000E-001	5.27702E-005	6	..........a	-327.65
	1239	124	4.10190E-001	-1.80328E-008	0.00000E+000	4.10000E-001	4.84702E-005	6	t.........a	-327.65
	1240	124.1	4.00157E-001	-1.81863E-008	0.00000E+000	4.00000E-001	5.04035E-005	6	..........a	-327.65
	1241	124.2	3.90134E-001	-1.82872E-008	0.00000E+000	3.90000E-001	5.36369E-005	6	..........a	-327.65
	1242	124.3	3.80137E-001	-1.83930E-008	0.00000E+000	3.80000E-001	4.94702E-005	6	..........a	-327.65
	1243	124.4	3.70137E-001	-1.84995E-008	0.00000E+000	3.70000E-001	5.11368E-005	6	..........a	-327.65
	1244	124.5	3.60107E-001	-1.85887E-008	0.00000E+000	3.60000E-001	5.21702E-005	6	..........a	-327.65
	1245	124.6	3.50124E-001	-1.86993E-008	0.00000E+000	3.50000E-001	5.01035E-005	6	..........a	-327.65
	1246	124.7	3.40139E-001	-1.87930E-008	0.00000E+000	3.40000E-001	4.84035E-005	6	..........a	-327.65
	1247	124.8	3.30123E-001	-1.89080E-008	0.00000E+000	3.30000E-001	4.99702E-005	6	..........a	-327.65
	1248	124.9	3.20120E-001	-1.89640E-008	0.00000E+000	3.20000E-001	4.86035E-005	6	..........a	-327.65
	1249	125	3.10117E-001	-1.90421E-008	0.00000E+000	3.10000E-001	5.03035E-005	6	..........a	-327.65
	1250	125.1	3.00171E-001	-1.91282E-008	0.00000E+000	3.00000E-001	4.84035E-005	6	..........a	-327.65
	1251	125.2	2.90156E-001	-1.92463E-008	0.00000E+000	2.90000E-001	4.91368E-005	6	..........a	-327.65
	1252	125.3	2.80121E-001	-1.93857E-008	0.00000E+000	2.80000E-001	5.05369E-005	6	..........a	-327.65
	1253	125.4	2.70090E-001	-1.95045E-008	0.00000E+000	2.70000E-001	4.77369E-005	6	..........a	-327.65
	1254	125.5	2.60141E-001	-1.96518E-008	0.00000E+000	2.60000E-001	4.81702E-005	6	..........a	-327.65
	1255	125.6	2.50151E-001	-1.98144E-008	0.00000E+000	2.50000E-001	4.67702E-005	6	..........a	-327.65
	1256	125.7	2.40151E-001	-1.99820E-008	0.00000E+000	2.40000E-001	5.40702E-005	6	..........a	-327.65
	1257	125.8	2.30126E-001	-2.02077E-008	0.00000E+000	2.30000E-001	5.55702E-005	6	..........a	-327.65
	1258	125.9	2.20166E-001	-2.03698E-008	0.00000E+000	2.20000E-001	5.21702E-005	6	..........a	-327.65
	1259	126	2.10137E-001	-2.06268E-008	0.00000E+000	2.10000E-001	5.08702E-005	6	..........a	-327.65
	1260	126.1	2.00129E-001	-2.08832E-008	0.00000E+000	2.00000E-001	5.19368E-005	6	..........a	-327.65
	1261	126.2	1.90149E-001	-2.11523E-008	0.00000E+000	1.90000E-001	5.67702E-005	6	..........a	-327.65
	1262	126.3	1.80135E-001	-2.14247E-008	0.00000E+000	1.80000E-001	5.32368E-005	6	..........a	-327.65
	1263	126.4	1.70142E-001	-2.17082E-008	0.00000E+000	1.70000E-001	5.25702E-005	6	..........a	-327.65
	1264	126.5	1.60135E-001	-2.20233E-008	0.00000E+000	1.60000E-001	5.14368E-005	6	..........a	-327.65
	1265	126.6	1.50148E-001	-2.23742E-008	0.00000E+000	1.50000E-001	5.15702E-005	6	..........a	-327.65
	1266	126.7	1.40170E-001	-2.26930E-008	0.00000E+000	1.40000E-001	5.23368E-005	6	..........a	-327.65
	1267	126.8	1.30137E-001	-2.30491E-008	0.00000E+000	1.30000E-001	4.99368E-005	6	..........a	-327.65
	1268	126.9	1.20123E-001	-2.34098E-008	0.00000E+000	1.20000E-001	5.15702E-005	6	..........a	-327.65
	1269	127	1.10129E-001	-2.37674E-008	0.00000E+000	1.10000E-001	4.66702E-005	6	..........a	-327.65
	1270	127.1	1.00148E-001	-2.41561E-008	0.00000E+000	1.00000E-001	4.81368E-005	6	..........a	-327.65
	1271	127.2	9.01034E-002	-2.45239E-008	0.00000E+000	9.00000E-002	4.74035E-005	6	..........a	-327.65
	1272	127.3	8.01386E-002	-2.49359E-008	0.00000E+000	8.00000E-002	5.09702E-005	6	..........a	-327.65
	1273	127.4	7.01291E-002	-2.53247E-008	0.00000E+000	7.00000E-002	5.20368E-005	6	..........a	-327.65
	1274	127.5	6.01624E-002	-2.57307E-008	0.00000E+000	6.00000E-002	4.93702E-005	6	..........a	-327.65
	1275	127.6	5.01562E-002	-2.61453E-008	0.00000E+000	5.00000E-002	5.07702E-005	6	..........a	-327.65
	1276	127.7	4.01254E-002	-2.65907E-008	0.00000E+000	4.00000E-002	5.33702E-005	6	..........a	-327.65
	1277	127.8	3.01406E-002	-2.70183E-008	0.00000E+000	3.00000E-002	5.18702E-005	6	..........a	-327.65
	1278	127.9	2.01330E-002	-2.74730E-008	0.00000E+000	2.00000E-002	4.72702E-005	6	..........a	-327.65
	1279	128	1.01574E-002	-2.79680E-008	0.00000E+000	1.00000E-002	5.25702E-005	6	..........a	-327.65
	1280	128.1	1.23264E-004	-2.84547E-008	0.00000E+000	7.45058E-009	5.18702E-005	6	..........a	-327.65
	1281	128.2	-9.98089E-003	-2.89589E-008	0.00000E+000	-1.00000E-002	4.82368E-005	6	..........a	-327.65
	1282	128.3	-1.99406E-002	-2.95298E-008	0.00000E+000	-2.00000E-002	5.44702E-005	6	..........a	-327.65
	1283	128.4	-3.00086E-002	-3.00133E-008	0.00000E+000	-3.00000E-002	4.90035E-005	6	..........a	-327.65
	1284	128.5	-3.99720E-002	-3.04600E-008	0.00000E+000	-4.00000E-002	4.94368E-005	6	..........a	-327.65
	1285	128.6	-5.00126E-002	-3.09136E-008	0.00000E+000	-5.00000E-002	5.24035E-005	6	..........a	-327.65
	1286	128.7	-5.99468E-002	-3.15143E-008	0.00000E+000	-6.00000E-002	4.65368E-005	6	..........a	-327.65
	1287	128.8	-6.99778E-002	-3.20810E-008	0.00000E+000	-7.00000E-002	5.49368E-005	6	..........a	-327.65
	1288	128.9	-7.99641E-002	-3.27282E-008	0.00000E+000	-8.00000E-002	5.45035E-005	6	..........a	-327.65
	1289	129	-8.99892E-002	-3.33524E-008	0.00000E+000	-9.00000E-002	5.26702E-005	6	..........a	-327.65
	1290	129.1	-9.99705E-002	-3.40261E-008	0.00000E+000	-1.00000E-001	5.13369E-005	6	..........a	-327.65
	1291	129.2	-1.09989E-001	-3.48043E-008	0.00000E+000	-1.10000E-001	5.33035E-005	6	..........a	-327.65
	1292	129.3	-1.19956E-001	-3.55681E-008	0.00000E+000	-1.20000E-001	5.60702E-005	6	..........a	-327.65
	1293	129.4	-1.29994E-001	-3.63946E-008	0.00000E+000	-1.30000E-001	5.56035E-005	6	..........a	-327.65
	1294	129.5	-1.39961E-001	-3.72955E-008	0.00000E+000	-1.40000E-001	5.32702E-005	6	..........a	-327.65
	1295	129.6	-1.49990E-001	-3.81627E-008	0.00000E+000	-1.50000E-001	5.52368E-005	6	..........a	-327.65
	1296	129.7	-1.59927E-001	-3.91270E-008	0.00000E+000	-1.60000E-001	5.51035E-005	6	..........a	-327.65
	1297	129.8	-1.69963E-001	-4.00393E-008	0.00000E+000	-1.70000E-001	5.52702E-005	6	..........a	-327.65
	1298	129.9	-1.79952E-001	-4.10011E-008	0.00000E+000	-1.80000E-001	5.45035E-005	6	..........a	-327.65
	1299	130	-1.90029E-001	-4.19741E-008	0.00000E+000	-1.90000E-001	5.42035E-005	6	..........a	-327.65
	1300	130.1	-1.99964E-001	-4.30150E-008	0.00000E+000	-2.00000E-001	5.69369E-005	6	..........a	-327.65
	1301	130.2	-2.09983E-001	-4.39445E-008	0.00000E+000	-2.10000E-001	5.52702E-005	6	..........a	-327.65
	1302	130.3	-2.19938E-001	-4.49517E-008	0.00000E+000	-2.20000E-001	5.36369E-005	6	..........a	-327.65
	1303	130.4	-2.29994E-001	-4.60044E-008	0.00000E+000	-2.30000E-001	5.68702E-005	6	..........a	-327.65
	1304	130.5	-2.39920E-001	-4.70914E-008	0.00000E+000	-2.40000E-001	5.78035E-005	6	..........a	-327.65
	1305	130.6	-2.49981E-001	-4.82127E-008	0.00000E+000	-2.50000E-001	5.58368E-005	6	..........a	-327.65
	1306	130.7	-2.59923E-001	-4.92844E-008	0.00000E+000	-2.60000E-001	5.52035E-005	6	..........a	-327.65
	1307	130.8	-2.69949E-001	-5.03909E-008	0.00000E+000	-2.70000E-001	6.00369E-005	6	..........a	-327.65
	1308	130.9	-2.79962E-001	-5.15115E-008	0.00000E+000	-2.80000E-001	5.96702E-005	6	..........a	-327.65
	1309	131	-2.89972E-001	-5.26679E-008	0.00000E+000	-2.90000E-001	6.05035E-005	6	..........a	-327.65
	1310	131.1	-2.99958E-001	-5.38597E-008	0.00000E+000	-3.00000E-001	5.57368E-005	6	..........a	-327.65
	1311	131.2	-3.09986E-001	-5.49733E-008	0.00000E+000	-3.10000E-001	5.90368E-005	6	..........a	-327.65
	1312	131.3	-3.19931E-001	-5.62272E-008	0.00000E+000	-3.20000E-001	6.15702E-005	6	..........a	-327.65
	1313	131.4	-3.29984E-001	-5.74285E-008	0.00000E+000	-3.30000E-001	5.74368E-005	6	..........a	-327.65
	1314	131.5	-3.39947E-001	-5.87537E-008	0.00000E+000	-3.40000E-001	6.01035E-005	6	..........a	-327.65
	1315	131.6	-3.49981E-001	-6.00372E-008	0.00000E+000	-3.50000E-001	5.65702E-005	6	..........a	-327.65
	1316	131.7	-3.59948E-001	-6.15046E-008	0.00000E+000	-3.60000E-001	5.68702E-005	6	..........a	-327.65
	1317	131.8	-3.70022E-001	-6.29913E-008	0.00000E+000	-3.70000E-001	5.60702E-005	6	..........a	-327.65
	1318	131.9	-3.79947E-001	-6.45513E-008	0.00000E+000	-3.80000E-001	5.53368E-005	6	..........a	-327.65
	1319	132	-3.90006E-001	-6.62585E-008	0.00000E+000	-3.90000E-001	6.05035E-005	6	..........a	-327.65
	1320	132.1	-3.99967E-001	-6.79843E-008	0.00000E+000	-4.00000E-001	5.51369E-005	6	..........a	-327.65
	1321	132.2	-4.10057E-001	-6.98239E-008	0.00000E+000	-4.10000E-001	5.27368E-005	6	..........a	-327.65
	1322	132.3	-4.20027E-001	-7.17562E-008	0.00000E+000	-4.20000E-001	5.12035E-005	6	..........a	-327.65
	1323	132.4	-4.30054E-001	-7.36567E-008	0.00000E+000	-4.30000E-001	5.26702E-005	6	..........a	-327.65
	1324	132.5	-4.40026E-001	-7.56573E-008	0.00000E+000	-4.40000E-001	5.87035E-005	6	..........a	-327.65
	1325	132.6	-4.50060E-001	-7.76654E-008	0.00000E+000	-4.50000E-001	5.26702E-005	6	..........a	-327.65
	1326	132.7	-4.60043E-001	-7.97101E-008	0.00000E+000	-4.60000E-001	5.44035E-005	6	..........a	-327.65
	1327	132.8	-4.70062E-001	-8.17381E-008	0.00000E+000	-4.70000E-001	5.74368E-005	6	..........a	-327.65
	1328	132.9	-4.80030E-001	-8.36022E-008	0.00000E+000	-4.80000E-001	5.68368E-005	6	..........a	-327.65
	1329	133	-4.90067E-001	-8.54206E-008	0.00000E+000	-4.90000E-001	5.64035E-005	6	..........a	-327.65
	1330	133.1	-5.00048E-001	-8.71437E-008	0.00000E+000	-5.00000E-001	4.93702E-005	6	..........a	-327.65
	1331	133.2	-5.10084E-001	-8.87015E-008	0.00000E+000	-5.10000E-001	5.03702E-005	6	..........a	-327.65
	1332	133.3	-5.19987E-001	-9.01597E-008	0.00000E+000	-5.20000E-001	5.34035E-005	6	..........a	-327.65
	1333	133.4	-5.30043E-001	-9.13809E-008	0.00000E+000	-5.30000E-001	5.04702E-005	6	..........a	-327.65
	1334	133.5	-5.40026E-001	-9.25092E-008	0.00000E+000	-5.40000E-001	4.71702E-005	6	..........a	-327.65
	1335	133.6	-5.50098E-001	-9.34298E-008	0.00000E+000	-5.50000E-001	5.80035E-005	6	..........a	-327.65
	1336	133.7	-5.60036E-001	-9.41573E-008	0.00000E+000	-5.60000E-001	5.41702E-005	6	..........a	-327.65
	1337	133.8	-5.70038E-001	-9.48244E-008	0.00000E+000	-5.70000E-001	5.52702E-005	6	..........a	-327.65
	1338	133.9	-5.80013E-001	-9.52497E-008	0.00000E+000	-5.80000E-001	5.93368E-005	6	..........a	-327.65
	1339	134	-5.90064E-001	-9.55521E-008	0.00000E+000	-5.90000E-001	5.99702E-005	6	..........a	-327.65
	1340	134.1	-6.00052E-001	-9.57967E-008	0.00000E+000	-6.00000E-001	1.15414E-003	6	..........a	-327.65
CURVE6	TABLE
	Pt	T	Vf	Im	Vu	Sig	Ach	IERange	Over	Temp
	#	s	V vs. Ref.	A	V	V	V	#	bits	deg C
	1341	134.2	-5.90110E-001	-6.07986E-008	0.00000E+000	-5.90000E-001	6.23035E-005	6	..........a	-327.65
	1342	134.3	-5.80059E-001	-4.96355E-008	0.00000E+000	-5.80000E-001	6.49368E-005	6	..........a	-327.65
	1343	134.4	-5.70081E-001	-4.17172E-008	0.00000E+000	-5.70000E-001	6.06368E-005	6	..........a	-327.65
	1344	134.5	-5.60076E-001	-3.56810E-008	0.00000E+000	-5.60000E-001	5.89035E-005	6	..........a	-327.65
	1345	134.6	-5.50138E-001	-3.10015E-008	0.00000E+000	-5.50000E-001	5.65035E-005	6	..........a	-327.65
	1346	134.7	-5.40072E-001	-2.71771E-008	0.00000E+000	-5.40000E-001	4.48035E-005	6	..........a	-327.65
	1347	134.8	-5.30085E-001	-2.41102E-008	0.00000E+000	-5.30000E-001	4.92702E-005	6	..........a	-327.65
	1348	134.9	-5.20039E-001	-2.15930E-008	0.00000E+000	-5.20000E-001	4.22702E-005	6	..........a	-327.65
	1349	135	-5.10132E-001	-1.95172E-008	0.00000E+000	-5.10000E-001	4.66702E-005	6	..........a	-327.65
	1350	135.1	-5.00088E-001	-1.77441E-008	0.00000E+000	-5.00000E-001	4.68035E-005	6	..........a	-327.65
	1351	135.2	-4.90115E-001	-1.62415E-008	0.00000E+000	-4.90000E-001	4.60702E-005	6	..........a	-327.65
	1352	135.3	-4.80076E-001	-1.49324E-008	0.00000E+000	-4.80000E-001	4.66035E-005	6	..........a	-327.65
	1353	135.4	-4.70116E-001	-1.37464E-008	0.00000E+000	-4.70000E-001	4.88035E-005	6	..........a	-327.65
	1354	135.5	-4.60092E-001	-1.27193E-008	0.00000E+000	-4.60000E-001	4.32702E-005	6	..........a	-327.65
	1355	135.6	-4.50106E-001	-1.17320E-008	0.00000E+000	-4.50000E-001	4.94368E-005	6	..........a	-327.65
	1356	135.7	-4.40076E-001	-1.07833E-008	0.00000E+000	-4.40000E-001	5.41702E-005	6	..........a	-327.65
	1357	135.8	-4.30101E-001	-9.88076E-009	0.00000E+000	-4.30000E-001	5.42702E-005	6	..........a	-327.65
	1358	135.9	-4.20080E-001	-9.06311E-009	0.00000E+000	-4.20000E-001	5.35368E-005	6	..........a	-327.65
	1359	136	-4.10108E-001	-8.25071E-009	0.00000E+000	-4.10000E-001	5.40035E-005	6	..........a	-327.65
	1360	136.1	-4.00017E-001	-7.41770E-009	0.00000E+000	-4.00000E-001	5.84369E-005	6	..........a	-327.65
	1361	136.2	-3.90057E-001	-6.62603E-009	0.00000E+000	-3.90000E-001	5.11368E-005	6	..........a	-327.65
	1362	136.3	-3.80002E-001	-5.82153E-009	0.00000E+000	-3.80000E-001	5.46702E-005	6	..........a	-327.65
	1363	136.4	-3.70080E-001	-4.99995E-009	0.00000E+000	-3.70000E-001	5.82368E-005	6	..........a	-327.65
	1364	136.5	-3.60007E-001	-4.16691E-009	0.00000E+000	-3.60000E-001	5.80702E-005	6	..........a	-327.65
	1365	136.6	-3.50035E-001	-3.31476E-009	0.00000E+000	-3.50000E-001	5.34702E-005	6	..........a	-327.65
	1366	136.7	-3.40005E-001	-2.47681E-009	0.00000E+000	-3.40000E-001	5.65368E-005	6	..........a	-327.65
	1367	136.8	-3.30038E-001	-1.59199E-009	0.00000E+000	-3.30000E-001	5.20035E-005	6	..........a	-327.65
	1368	136.9	-3.19994E-001	-7.27266E-010	0.00000E+000	-3.20000E-001	5.59368E-005	6	..........a	-327.65
	1369	137	-3.10036E-001	1.42890E-010	0.00000E+000	-3.10000E-001	5.29035E-005	6	..........a	-327.65
	1370	137.1	-3.00011E-001	1.00968E-009	0.00000E+000	-3.00000E-001	5.00035E-005	6	..........a	-327.65
	1371	137.2	-2.90046E-001	1.88784E-009	0.00000E+000	-2.90000E-001	4.79035E-005	6	..........a	-327.65
	1372	137.3	-2.80017E-001	2.73585E-009	0.00000E+000	-2.80000E-001	4.76702E-005	6	..........a	-327.65
	1373	137.4	-2.70006E-001	3.57070E-009	0.00000E+000	-2.70000E-001	4.85035E-005	6	..........a	-327.65
	1374	137.5	-2.59989E-001	4.42985E-009	0.00000E+000	-2.60000E-001	4.90368E-005	6	..........a	-327.65
	1375	137.6	-2.50037E-001	5.28220E-009	0.00000E+000	-2.50000E-001	4.52702E-005	6	..........a	-327.65
	1376	137.7	-2.39985E-001	6.08437E-009	0.00000E+000	-2.40000E-001	4.92368E-005	6	..........a	-327.65
	1377	137.8	-2.30055E-001	6.86407E-009	0.00000E+000	-2.30000E-001	4.74035E-005	6	..........a	-327.65
	1378	137.9	-2.19993E-001	7.63436E-009	0.00000E+000	-2.20000E-001	4.45035E-005	6	..........a	-327.65
	1379	138	-2.10040E-001	8.37154E-009	0.00000E+000	-2.10000E-001	4.73035E-005	6	..........a	-327.65
	1380	138.1	-2.00019E-001	9.12253E-009	0.00000E+000	-2.00000E-001	4.73702E-005	6	..........a	-327.65
	1381	138.2	-1.90082E-001	9.87448E-009	0.00000E+000	-1.90000E-001	4.93702E-005	6	..........a	-327.65
	1382	138.3	-1.80006E-001	1.05873E-008	0.00000E+000	-1.80000E-001	4.83702E-005	6	..........a	-327.65
	1383	138.4	-1.70009E-001	1.12973E-008	0.00000E+000	-1.70000E-001	4.53702E-005	6	..........a	-327.65
	1384	138.5	-1.59970E-001	1.20044E-008	0.00000E+000	-1.60000E-001	4.51702E-005	6	..........a	-327.65
	1385	138.6	-1.50032E-001	1.27112E-008	0.00000E+000	-1.50000E-001	4.41702E-005	6	..........a	-327.65
	1386	138.7	-1.40012E-001	1.34116E-008	0.00000E+000	-1.40000E-001	4.42035E-005	6	..........a	-327.65
	1387	138.8	-1.30036E-001	1.41291E-008	0.00000E+000	-1.30000E-001	4.43035E-005	6	..........a	-327.65
	1388	138.9	-1.20000E-001	1.48579E-008	0.00000E+000	-1.20000E-001	4.99035E-005	6	..........a	-327.65
	1389	139	-1.10033E-001	1.55845E-008	0.00000E+000	-1.10000E-001	4.80035E-005	6	..........a	-327.65
	1390	139.1	-1.00016E-001	1.63040E-008	0.00000E+000	-1.00000E-001	5.12368E-005	6	..........a	-327.65
	1391	139.2	-9.00320E-002	1.70669E-008	0.00000E+000	-9.00000E-002	4.63035E-005	6	..........a	-327.65
	1392	139.3	-8.00072E-002	1.78151E-008	0.00000E+000	-8.00000E-002	4.12368E-005	6	..........a	-327.65
	1393	139.4	-7.00172E-002	1.85867E-008	0.00000E+000	-7.00000E-002	4.50702E-005	6	..........a	-327.65
	1394	139.5	-6.00014E-002	1.93678E-008	0.00000E+000	-6.00000E-002	4.44035E-005	6	..........a	-327.65
	1395	139.6	-5.00568E-002	2.01882E-008	0.00000E+000	-5.00000E-002	4.78368E-005	6	..........a	-327.65
	1396	139.7	-4.00163E-002	2.10199E-008	0.00000E+000	-4.00000E-002	4.14368E-005	6	..........a	-327.65
	1397	139.8	-3.00492E-002	2.18779E-008	0.00000E+000	-3.00000E-002	4.20368E-005	6	..........a	-327.65
	1398	139.9	-1.99929E-002	2.27704E-008	0.00000E+000	-2.00000E-002	4.14035E-005	6	..........a	-327.65
	1399	140	-1.00362E-002	2.36818E-008	0.00000E+000	-1.00000E-002	4.38702E-005	6	..........a	-327.65
	1400	140.1	7.58227E-005	2.46290E-008	0.00000E+000	7.45058E-009	1.13557E-003	6	..........a	-327.65