File: Figure 1F/data/2.5M.DTA
EXPLAIN
TAG	CV
TITLE	LABEL	Cyclic Voltammetry	Test &Identifier
DATE	LABEL	8/23/2021	Date
TIME	LABEL	12:55:54	Time
NOTES	NOTES	1	&Notes...

PSTAT	PSTAT	REF600P-40007	Potentiostat
VINIT	POTEN	0.00000E+000	F	Initial &E (V)
VLIMIT1	POTEN	8.00000E-001	F	Scan Limit &1 (V)
VLIMIT2	POTEN	-6.00000E-001	F	Scan Limit &2 (V)
VFINAL	POTEN	0.00000E+000	F	Final &E (V)
SCANRATE	QUANT	9.99998E+001	&Scan Rate (mV/s)
STEPSIZE	QUANT	1.00000E+001	St&ep Size (mV)
CYCLES	IQUANT	5	C&ycles (#)
IMODE	SELECTOR	0	I/E Range &Mode
IRANGE	QUANT	3.00000E-001	&Max Current (mA)
AREA	QUANT	2.87000E-005	Electrode &Area (cm^2)
ELECTRODETYPE	SELECTOR	0	Electrode Type
STRIPPING	TOGGLE	F	Used for Stripping
POLARITY	TOGGLE	F	Signal Polarity
CONDIT	TWOPARAM	F	1.50000E+001	0.00000E+000	Conditionin&g	Time(s)	E(V)
DELAY	TWOPARAM	T	5.00000E+000	0.00000E+000	Init. De&lay	Time(s)	Stab.(mV/s)
EQDELAY	QUANT	5.00000E+000	Equil. &Time (s)
IRCOMP	SELECTOR	0	IRCom&p
PFCOR	QUANT	5.00000E+001	PF Corr. (ohm)
SAMPLINGMODE	SELECTOR	2	Sampling &Mode
OCVCURVE	TABLE	19
	Pt	T	Vf	Vm	Ach	Over	Temp
	#	s	V vs. Ref.	V	V	bits	deg C
	0	0.258333	1.52971E-001	1.52971E-001	1.18240E-003	..........a	-327.65
	1	0.516667	1.52944E-001	1.51547E-001	1.17200E-003	..........a	-327.65
	2	0.775	1.52807E-001	1.51778E-001	1.17120E-003	..........a	-327.65
	3	1.03333	1.52520E-001	1.51990E-001	1.17574E-003	..........a	-327.65
	4	1.29167	1.52197E-001	1.52043E-001	1.16894E-003	..........a	-327.65
	5	1.55	1.51995E-001	1.52058E-001	1.17380E-003	..........a	-327.65
	6	1.80833	1.51946E-001	1.52073E-001	1.17227E-003	..........a	-327.65
	7	2.06667	1.51977E-001	1.52000E-001	1.17907E-003	..........a	-327.65
	8	2.325	1.52017E-001	1.52006E-001	1.16454E-003	..........a	-327.65
	9	2.58333	1.52031E-001	1.51915E-001	1.17974E-003	..........a	-327.65
	10	2.84167	1.52017E-001	1.51929E-001	1.16600E-003	..........a	-327.65
	11	3.1	1.51988E-001	1.51940E-001	1.18167E-003	..........a	-327.65
	12	3.35833	1.51960E-001	1.51955E-001	1.17174E-003	..........a	-327.65
	13	3.61667	1.51944E-001	1.51953E-001	1.17674E-003	..........a	-327.65
	14	3.875	1.51941E-001	1.51956E-001	1.17434E-003	..........a	-327.65
	15	4.13333	1.51946E-001	1.51965E-001	1.16387E-003	..........a	-327.65
	16	4.39167	1.51952E-001	1.51956E-001	1.16674E-003	..........a	-327.65
	17	4.65	1.51956E-001	1.51964E-001	1.17154E-003	..........a	-327.65
	18	4.90833	1.51959E-001	1.51961E-001	1.17620E-003	..........a	-327.65
EOC	QUANT	0.1519592	Open Circuit (V)
PSTATMODEL	IQUANT	7	Pstat Model
PSTATSECTION	LABEL	REF600P-40007	Pstat Section
PSTATSERIALNO	LABEL	40007	Pstat Serial Number
CTRLMODE	IQUANT	1	Control Mode
ELECTROMETER	IQUANT	0	RE=0 or CS=1
IESTAB	IQUANT	2	I/E Stability
CASPEED	IQUANT	4	Control Amp Speed
CONVENTION	IQUANT	1	Current Convention
ICHRANGE	IQUANT	2	Ich Range
ICHRANGEMODE	TOGGLE	F	Ich Auto Range
ICHOFFSETENABLE	TOGGLE	F	Ich Offset Enable
ICHOFFSET	QUANT	0	Ich Offset (V)
ICHFILTER	IQUANT	2	Ich Filter
VCHRANGE	IQUANT	2	Vch Range
VCHRANGEMODE	TOGGLE	F	Vch Auto Range
VCHOFFSETENABLE	TOGGLE	F	Vch Offset Enable
VCHOFFSET	QUANT	0	Vch Offset (V)
VCHFILTER	IQUANT	2	Vch Filter
ACHRANGE	IQUANT	2	Ach Range
ACHOFFSETENABLE	TOGGLE	F	Ach Offset Enable
ACHOFFSET	QUANT	0	Ach Offset (V)
ACHFILTER	IQUANT	1	Ach Filter
IERANGELOWERLIMIT	IQUANT	1	I/E Range Lower Limit
IERANGEMODE	TOGGLE	T	I/E AutoRange
IERANGE	IQUANT	8	I/E Range
POSFEEDENABLE	TOGGLE	F	Positive Feedback IR Comp
POSFEEDRESISTANCE	QUANT	0	Positive Feedback Resistance (ohm)
ACHSELECT	IQUANT	0	Ach Select
SENSECABLEID	IQUANT	7	Sense Cable ID
PWRCABLEID	IQUANT	7	Power Cable ID
DCCALDATE	LABEL	8/21/2021	DC Calibration Date
ACCALDATE	LABEL	8/21/2021	AC Calibration Date
THERMOSELECT	IQUANT	1	Thermo Select
FRAMEWORKVERSION	LABEL	7.8.1	Framework Version
INSTRUMENTVERSION	LABEL	4.40	Instrument Version
CURVE1	TABLE
	Pt	T	Vf	Im	Vu	Sig	Ach	IERange	Over	Temp
	#	s	V vs. Ref.	A	V	V	V	#	bits	deg C
	0	0.1	1.01859E-004	1.29863E-007	0.00000E+000	7.45058E-009	1.15587E-003	8	..........a	-327.65
	1	0.2	1.01249E-002	1.81071E-008	0.00000E+000	1.00000E-002	1.15720E-003	7	......s...a	-327.65
	2	0.3	2.00877E-002	1.20368E-008	0.00000E+000	2.00000E-002	1.13760E-003	6	......s...a	-327.65
	3	0.4	3.00938E-002	1.36421E-008	0.00000E+000	3.00000E-002	1.14104E-003	6	..........a	-327.65
	4	0.5	4.00763E-002	1.49662E-008	0.00000E+000	4.00000E-002	4.87035E-005	6	..........a	-327.65
	5	0.6	5.00998E-002	1.60558E-008	0.00000E+000	5.00000E-002	5.09035E-005	6	..........a	-327.65
	6	0.7	6.01124E-002	1.70349E-008	0.00000E+000	6.00000E-002	5.03368E-005	6	..........a	-327.65
	7	0.8	7.00786E-002	1.79472E-008	0.00000E+000	7.00000E-002	5.24035E-005	6	..........a	-327.65
	8	0.9	8.00945E-002	1.88362E-008	0.00000E+000	8.00000E-002	5.08368E-005	6	..........a	-327.65
	9	1	9.00436E-002	1.96407E-008	0.00000E+000	9.00000E-002	5.02035E-005	6	..........a	-327.65
	10	1.1	1.00108E-001	2.04244E-008	0.00000E+000	1.00000E-001	5.46035E-005	6	..........a	-327.65
	11	1.2	1.10083E-001	2.11888E-008	0.00000E+000	1.10000E-001	5.27702E-005	6	..........a	-327.65
	12	1.3	1.20074E-001	2.19467E-008	0.00000E+000	1.20000E-001	4.71702E-005	6	..........a	-327.65
	13	1.4	1.30085E-001	2.26247E-008	0.00000E+000	1.30000E-001	4.98368E-005	6	..........a	-327.65
	14	1.5	1.40122E-001	2.32975E-008	0.00000E+000	1.40000E-001	5.38368E-005	6	..........a	-327.65
	15	1.6	1.50093E-001	2.39503E-008	0.00000E+000	1.50000E-001	5.01368E-005	6	..........a	-327.65
	16	1.7	1.60089E-001	2.46015E-008	0.00000E+000	1.60000E-001	4.99035E-005	6	..........a	-327.65
	17	1.8	1.70099E-001	2.52224E-008	0.00000E+000	1.70000E-001	4.65035E-005	6	..........a	-327.65
	18	1.9	1.80089E-001	2.58374E-008	0.00000E+000	1.80000E-001	4.92702E-005	6	..........a	-327.65
	19	2	1.90106E-001	2.64300E-008	0.00000E+000	1.90000E-001	4.63368E-005	6	..........a	-327.65
	20	2.1	2.00085E-001	2.70785E-008	0.00000E+000	2.00000E-001	5.08368E-005	6	..........a	-327.65
	21	2.2	2.10092E-001	2.77169E-008	0.00000E+000	2.10000E-001	5.29035E-005	6	..........a	-327.65
	22	2.3	2.20126E-001	2.83563E-008	0.00000E+000	2.20000E-001	4.59369E-005	6	..........a	-327.65
	23	2.4	2.30078E-001	2.90228E-008	0.00000E+000	2.30000E-001	4.48035E-005	6	..........a	-327.65
	24	2.5	2.40107E-001	2.96448E-008	0.00000E+000	2.40000E-001	4.89368E-005	6	..........a	-327.65
	25	2.6	2.50113E-001	3.02487E-008	0.00000E+000	2.50000E-001	4.86035E-005	6	..........a	-327.65
	26	2.7	2.60095E-001	3.08050E-008	0.00000E+000	2.60000E-001	5.03035E-005	6	..........a	-327.65
	27	2.8	2.70038E-001	3.12990E-008	0.00000E+000	2.70000E-001	4.42368E-005	6	..........a	-327.65
	28	2.9	2.80079E-001	3.16946E-008	0.00000E+000	2.80000E-001	4.88369E-005	6	..........a	-327.65
	29	3	2.90112E-001	3.20369E-008	0.00000E+000	2.90000E-001	4.60702E-005	6	..........a	-327.65
	30	3.1	3.00134E-001	3.22929E-008	0.00000E+000	3.00000E-001	3.92702E-005	6	..........a	-327.65
	31	3.2	3.10070E-001	3.24670E-008	0.00000E+000	3.10000E-001	4.26702E-005	6	..........a	-327.65
	32	3.3	3.20074E-001	3.26043E-008	0.00000E+000	3.20000E-001	4.39035E-005	6	..........a	-327.65
	33	3.4	3.30081E-001	3.26465E-008	0.00000E+000	3.30000E-001	4.64702E-005	6	..........a	-327.65
	34	3.5	3.40098E-001	3.26750E-008	0.00000E+000	3.40000E-001	4.43035E-005	6	..........a	-327.65
	35	3.6	3.50087E-001	3.26389E-008	0.00000E+000	3.50000E-001	4.70702E-005	6	..........a	-327.65
	36	3.7	3.60066E-001	3.25713E-008	0.00000E+000	3.60000E-001	4.96702E-005	6	..........a	-327.65
	37	3.8	3.70099E-001	3.24948E-008	0.00000E+000	3.70000E-001	4.89035E-005	6	..........a	-327.65
	38	3.9	3.80101E-001	3.23734E-008	0.00000E+000	3.80000E-001	4.81035E-005	6	..........a	-327.65
	39	4	3.90086E-001	3.22317E-008	0.00000E+000	3.90000E-001	4.84369E-005	6	..........a	-327.65
	40	4.1	4.00107E-001	3.21243E-008	0.00000E+000	4.00000E-001	4.46035E-005	6	..........a	-327.65
	41	4.2	4.10143E-001	3.19917E-008	0.00000E+000	4.10000E-001	4.22702E-005	6	..........a	-327.65
	42	4.3	4.20160E-001	3.18705E-008	0.00000E+000	4.20000E-001	4.81035E-005	6	..........a	-327.65
	43	4.4	4.30124E-001	3.17660E-008	0.00000E+000	4.30000E-001	5.36035E-005	6	..........a	-327.65
	44	4.5	4.40143E-001	3.16526E-008	0.00000E+000	4.40000E-001	5.11368E-005	6	..........a	-327.65
	45	4.6	4.50122E-001	3.15655E-008	0.00000E+000	4.50000E-001	4.62702E-005	6	..........a	-327.65
	46	4.7	4.60178E-001	3.14982E-008	0.00000E+000	4.60000E-001	5.18369E-005	6	..........a	-327.65
	47	4.8	4.70147E-001	3.14323E-008	0.00000E+000	4.70000E-001	5.17368E-005	6	..........a	-327.65
	48	4.9	4.80131E-001	3.13772E-008	0.00000E+000	4.80000E-001	4.97702E-005	6	..........a	-327.65
	49	5	4.90156E-001	3.13307E-008	0.00000E+000	4.90000E-001	4.87035E-005	6	..........a	-327.65
	50	5.1	5.00120E-001	3.12746E-008	0.00000E+000	5.00000E-001	4.68035E-005	6	..........a	-327.65
	51	5.2	5.10137E-001	3.12351E-008	0.00000E+000	5.10000E-001	4.79368E-005	6	..........a	-327.65
	52	5.3	5.20135E-001	3.11860E-008	0.00000E+000	5.20000E-001	5.10702E-005	6	..........a	-327.65
	53	5.4	5.30131E-001	3.11692E-008	0.00000E+000	5.30000E-001	5.54368E-005	6	..........a	-327.65
	54	5.5	5.40159E-001	3.11653E-008	0.00000E+000	5.40000E-001	4.61035E-005	6	..........a	-327.65
	55	5.6	5.50156E-001	3.11369E-008	0.00000E+000	5.50000E-001	4.55702E-005	6	..........a	-327.65
	56	5.7	5.60141E-001	3.11359E-008	0.00000E+000	5.60000E-001	4.55702E-005	6	..........a	-327.65
	57	5.8	5.70164E-001	3.11787E-008	0.00000E+000	5.70000E-001	4.62368E-005	6	..........a	-327.65
	58	5.9	5.80195E-001	3.12135E-008	0.00000E+000	5.80000E-001	4.27035E-005	6	..........a	-327.65
	59	6	5.90128E-001	3.12268E-008	0.00000E+000	5.90000E-001	5.02035E-005	6	..........a	-327.65
	60	6.1	6.00158E-001	3.12815E-008	0.00000E+000	6.00000E-001	5.36702E-005	6	..........a	-327.65
	61	6.2	6.10148E-001	3.13579E-008	0.00000E+000	6.10000E-001	4.96369E-005	6	..........a	-327.65
	62	6.3	6.20154E-001	3.15033E-008	0.00000E+000	6.20000E-001	5.02702E-005	6	..........a	-327.65
	63	6.4	6.30136E-001	3.16151E-008	0.00000E+000	6.30000E-001	4.80702E-005	6	..........a	-327.65
	64	6.5	6.40120E-001	3.17909E-008	0.00000E+000	6.40000E-001	4.86368E-005	6	..........a	-327.65
	65	6.6	6.50175E-001	3.20384E-008	0.00000E+000	6.50000E-001	4.38702E-005	6	..........a	-327.65
	66	6.7	6.60144E-001	3.23214E-008	0.00000E+000	6.60000E-001	4.43368E-005	6	..........a	-327.65
	67	6.8	6.70134E-001	3.26232E-008	0.00000E+000	6.70000E-001	4.97035E-005	6	..........a	-327.65
	68	6.9	6.80109E-001	3.30156E-008	0.00000E+000	6.80000E-001	5.21035E-005	6	..........a	-327.65
	69	7	6.90144E-001	3.34613E-008	0.00000E+000	6.90000E-001	4.89702E-005	6	..........a	-327.65
	70	7.1	7.00172E-001	3.39801E-008	0.00000E+000	7.00000E-001	5.20368E-005	6	..........a	-327.65
	71	7.2	7.10149E-001	3.45709E-008	0.00000E+000	7.10000E-001	5.19035E-005	6	..........a	-327.65
	72	7.3	7.20121E-001	3.52647E-008	0.00000E+000	7.20000E-001	4.86702E-005	6	..........a	-327.65
	73	7.4	7.30078E-001	3.60768E-008	0.00000E+000	7.30000E-001	4.89368E-005	6	..........a	-327.65
	74	7.5	7.40137E-001	3.70004E-008	0.00000E+000	7.40000E-001	4.78368E-005	6	..........a	-327.65
	75	7.6	7.50146E-001	3.80688E-008	0.00000E+000	7.50000E-001	4.95368E-005	6	..........a	-327.65
	76	7.7	7.60153E-001	3.92491E-008	0.00000E+000	7.60000E-001	5.12035E-005	6	..........a	-327.65
	77	7.8	7.70127E-001	4.06057E-008	0.00000E+000	7.70000E-001	5.02368E-005	6	..........a	-327.65
	78	7.9	7.80163E-001	4.20884E-008	0.00000E+000	7.80000E-001	5.36702E-005	6	..........a	-327.65
	79	8	7.90135E-001	4.37526E-008	0.00000E+000	7.90000E-001	4.52368E-005	6	..........a	-327.65
	80	8.1	8.00149E-001	4.56217E-008	0.00000E+000	8.00000E-001	4.97035E-005	6	..........a	-327.65
	81	8.2	7.90176E-001	1.49306E-008	0.00000E+000	7.90000E-001	4.81368E-005	6	..........a	-327.65
	82	8.3	7.80203E-001	7.10047E-009	0.00000E+000	7.80000E-001	5.24035E-005	6	..........a	-327.65
	83	8.4	7.70174E-001	1.86283E-009	0.00000E+000	7.70000E-001	5.20035E-005	6	..........a	-327.65
	84	8.5	7.60200E-001	-1.93669E-009	0.00000E+000	7.60000E-001	5.45035E-005	6	..........a	-327.65
	85	8.6	7.50190E-001	-4.77999E-009	0.00000E+000	7.50000E-001	5.08368E-005	6	..........a	-327.65
	86	8.7	7.40182E-001	-6.96870E-009	0.00000E+000	7.40000E-001	4.49368E-005	6	..........a	-327.65
	87	8.8	7.30123E-001	-8.67310E-009	0.00000E+000	7.30000E-001	5.41702E-005	6	..........a	-327.65
	88	8.9	7.20164E-001	-1.00665E-008	0.00000E+000	7.20000E-001	5.61368E-005	6	..........a	-327.65
	89	9	7.10189E-001	-1.11892E-008	0.00000E+000	7.10000E-001	5.60035E-005	6	..........a	-327.65
	90	9.1	7.00216E-001	-1.21514E-008	0.00000E+000	7.00000E-001	5.35368E-005	6	..........a	-327.65
	91	9.2	6.90187E-001	-1.29276E-008	0.00000E+000	6.90000E-001	5.69369E-005	6	..........a	-327.65
	92	9.3	6.80150E-001	-1.36085E-008	0.00000E+000	6.80000E-001	5.90035E-005	6	..........a	-327.65
	93	9.4	6.70179E-001	-1.41942E-008	0.00000E+000	6.70000E-001	5.30702E-005	6	..........a	-327.65
	94	9.5	6.60195E-001	-1.47187E-008	0.00000E+000	6.60000E-001	5.96702E-005	6	..........a	-327.65
	95	9.6	6.50221E-001	-1.51264E-008	0.00000E+000	6.50000E-001	5.89368E-005	6	..........a	-327.65
	96	9.7	6.40164E-001	-1.55351E-008	0.00000E+000	6.40000E-001	5.93368E-005	6	..........a	-327.65
	97	9.8	6.30187E-001	-1.58610E-008	0.00000E+000	6.30000E-001	5.58702E-005	6	..........a	-327.65
	98	9.9	6.20203E-001	-1.61902E-008	0.00000E+000	6.20000E-001	5.88368E-005	6	..........a	-327.65
	99	10	6.10191E-001	-1.64963E-008	0.00000E+000	6.10000E-001	5.63702E-005	6	..........a	-327.65
	100	10.1	6.00203E-001	-1.67507E-008	0.00000E+000	6.00000E-001	5.68368E-005	6	..........a	-327.65
	101	10.2	5.90174E-001	-1.69817E-008	0.00000E+000	5.90000E-001	5.90368E-005	6	..........a	-327.65
	102	10.3	5.80243E-001	-1.71996E-008	0.00000E+000	5.80000E-001	6.10702E-005	6	..........a	-327.65
	103	10.4	5.70207E-001	-1.73795E-008	0.00000E+000	5.70000E-001	5.54702E-005	6	..........a	-327.65
	104	10.5	5.60185E-001	-1.75989E-008	0.00000E+000	5.60000E-001	5.90368E-005	6	..........a	-327.65
	105	10.6	5.50210E-001	-1.77798E-008	0.00000E+000	5.50000E-001	5.77369E-005	6	..........a	-327.65
	106	10.7	5.40210E-001	-1.79735E-008	0.00000E+000	5.40000E-001	5.69035E-005	6	..........a	-327.65
	107	10.8	5.30170E-001	-1.81232E-008	0.00000E+000	5.30000E-001	5.31035E-005	6	..........a	-327.65
	108	10.9	5.20181E-001	-1.82730E-008	0.00000E+000	5.20000E-001	5.80368E-005	6	..........a	-327.65
	109	11	5.10181E-001	-1.83826E-008	0.00000E+000	5.10000E-001	5.93702E-005	6	..........a	-327.65
	110	11.1	5.00163E-001	-1.85945E-008	0.00000E+000	5.00000E-001	5.18369E-005	6	..........a	-327.65
	111	11.2	4.90207E-001	-1.87495E-008	0.00000E+000	4.90000E-001	5.68035E-005	6	..........a	-327.65
	112	11.3	4.80179E-001	-1.89402E-008	0.00000E+000	4.80000E-001	5.76035E-005	6	..........a	-327.65
	113	11.4	4.70189E-001	-1.90882E-008	0.00000E+000	4.70000E-001	5.41035E-005	6	..........a	-327.65
	114	11.5	4.60223E-001	-1.92143E-008	0.00000E+000	4.60000E-001	5.55702E-005	6	..........a	-327.65
	115	11.6	4.50156E-001	-1.93558E-008	0.00000E+000	4.50000E-001	6.08702E-005	6	..........a	-327.65
	116	11.7	4.40186E-001	-1.95012E-008	0.00000E+000	4.40000E-001	6.23702E-005	6	..........a	-327.65
	117	11.8	4.30164E-001	-1.96419E-008	0.00000E+000	4.30000E-001	6.20035E-005	6	..........a	-327.65
	118	11.9	4.20211E-001	-1.97706E-008	0.00000E+000	4.20000E-001	6.16368E-005	6	..........a	-327.65
	119	12	4.10191E-001	-1.98865E-008	0.00000E+000	4.10000E-001	5.87368E-005	6	..........a	-327.65
	120	12.1	4.00163E-001	-1.99880E-008	0.00000E+000	4.00000E-001	5.77369E-005	6	..........a	-327.65
	121	12.2	3.90134E-001	-2.01218E-008	0.00000E+000	3.90000E-001	5.30368E-005	6	..........a	-327.65
	122	12.3	3.80157E-001	-2.02484E-008	0.00000E+000	3.80000E-001	5.07368E-005	6	..........a	-327.65
	123	12.4	3.70147E-001	-2.03650E-008	0.00000E+000	3.70000E-001	5.59035E-005	6	..........a	-327.65
	124	12.5	3.60108E-001	-2.04504E-008	0.00000E+000	3.60000E-001	5.26035E-005	6	..........a	-327.65
	125	12.6	3.50132E-001	-2.06008E-008	0.00000E+000	3.50000E-001	5.31702E-005	6	..........a	-327.65
	126	12.7	3.40147E-001	-2.07547E-008	0.00000E+000	3.40000E-001	5.62035E-005	6	..........a	-327.65
	127	12.8	3.30129E-001	-2.08988E-008	0.00000E+000	3.30000E-001	6.10369E-005	6	..........a	-327.65
	128	12.9	3.20127E-001	-2.09616E-008	0.00000E+000	3.20000E-001	5.55702E-005	6	..........a	-327.65
	129	13	3.10116E-001	-2.10673E-008	0.00000E+000	3.10000E-001	5.72702E-005	6	..........a	-327.65
	130	13.1	3.00187E-001	-2.12230E-008	0.00000E+000	3.00000E-001	5.52035E-005	6	..........a	-327.65
	131	13.2	2.90161E-001	-2.13884E-008	0.00000E+000	2.90000E-001	5.99702E-005	6	..........a	-327.65
	132	13.3	2.80123E-001	-2.15399E-008	0.00000E+000	2.80000E-001	5.89368E-005	6	..........a	-327.65
	133	13.4	2.70072E-001	-2.17271E-008	0.00000E+000	2.70000E-001	6.23369E-005	6	..........a	-327.65
	134	13.5	2.60149E-001	-2.19323E-008	0.00000E+000	2.60000E-001	5.83368E-005	6	..........a	-327.65
	135	13.6	2.50155E-001	-2.21439E-008	0.00000E+000	2.50000E-001	5.28702E-005	6	..........a	-327.65
	136	13.7	2.40151E-001	-2.23486E-008	0.00000E+000	2.40000E-001	5.93035E-005	6	..........a	-327.65
	137	13.8	2.30126E-001	-2.25963E-008	0.00000E+000	2.30000E-001	5.96702E-005	6	..........a	-327.65
	138	13.9	2.20164E-001	-2.28592E-008	0.00000E+000	2.20000E-001	5.63702E-005	6	..........a	-327.65
	139	14	2.10135E-001	-2.31055E-008	0.00000E+000	2.10000E-001	6.20368E-005	6	..........a	-327.65
	140	14.1	2.00130E-001	-2.33724E-008	0.00000E+000	2.00000E-001	6.72368E-005	6	..........a	-327.65
	141	14.2	1.90149E-001	-2.36321E-008	0.00000E+000	1.90000E-001	6.10369E-005	6	..........a	-327.65
	142	14.3	1.80132E-001	-2.39483E-008	0.00000E+000	1.80000E-001	6.28369E-005	6	..........a	-327.65
	143	14.4	1.70145E-001	-2.42842E-008	0.00000E+000	1.70000E-001	6.24035E-005	6	..........a	-327.65
	144	14.5	1.60129E-001	-2.45769E-008	0.00000E+000	1.60000E-001	6.55702E-005	6	..........a	-327.65
	145	14.6	1.50138E-001	-2.49158E-008	0.00000E+000	1.50000E-001	6.04702E-005	6	..........a	-327.65
	146	14.7	1.40168E-001	-2.52758E-008	0.00000E+000	1.40000E-001	6.35702E-005	6	..........a	-327.65
	147	14.8	1.30129E-001	-2.56498E-008	0.00000E+000	1.30000E-001	6.30369E-005	6	..........a	-327.65
	148	14.9	1.20124E-001	-2.59428E-008	0.00000E+000	1.20000E-001	5.59368E-005	6	..........a	-327.65
	149	15	1.10128E-001	-2.62975E-008	0.00000E+000	1.10000E-001	5.95035E-005	6	..........a	-327.65
	150	15.1	1.00155E-001	-2.66433E-008	0.00000E+000	1.00000E-001	5.79368E-005	6	..........a	-327.65
	151	15.2	9.00918E-002	-2.69162E-008	0.00000E+000	9.00000E-002	5.83702E-005	6	..........a	-327.65
	152	15.3	8.01322E-002	-2.72842E-008	0.00000E+000	8.00000E-002	5.58035E-005	6	..........a	-327.65
	153	15.4	7.01179E-002	-2.76503E-008	0.00000E+000	7.00000E-002	5.77035E-005	6	..........a	-327.65
	154	15.5	6.01587E-002	-2.79919E-008	0.00000E+000	6.00000E-002	5.77035E-005	6	..........a	-327.65
	155	15.6	5.01416E-002	-2.83467E-008	0.00000E+000	5.00000E-002	5.48368E-005	6	..........a	-327.65
	156	15.7	4.01187E-002	-2.86962E-008	0.00000E+000	4.00000E-002	5.41035E-005	6	..........a	-327.65
	157	15.8	3.01341E-002	-2.90280E-008	0.00000E+000	3.00000E-002	5.61702E-005	6	..........a	-327.65
	158	15.9	2.01279E-002	-2.94012E-008	0.00000E+000	2.00000E-002	5.84702E-005	6	..........a	-327.65
	159	16	1.01581E-002	-2.97705E-008	0.00000E+000	1.00000E-002	5.48368E-005	6	..........a	-327.65
	160	16.1	1.13246E-004	-3.01669E-008	0.00000E+000	7.45058E-009	5.46035E-005	6	..........a	-327.65
	161	16.2	-9.99337E-003	-3.05778E-008	0.00000E+000	-1.00000E-002	5.73368E-005	6	..........a	-327.65
	162	16.3	-1.99459E-002	-3.09034E-008	0.00000E+000	-2.00000E-002	5.62368E-005	6	..........a	-327.65
	163	16.4	-3.00078E-002	-3.14535E-008	0.00000E+000	-3.00000E-002	5.41702E-005	6	..........a	-327.65
	164	16.5	-3.99655E-002	-3.18504E-008	0.00000E+000	-4.00000E-002	5.44035E-005	6	..........a	-327.65
	165	16.6	-5.00158E-002	-3.23647E-008	0.00000E+000	-5.00000E-002	5.40368E-005	6	..........a	-327.65
	166	16.7	-5.99594E-002	-3.28479E-008	0.00000E+000	-6.00000E-002	5.07035E-005	6	..........a	-327.65
	167	16.8	-6.99654E-002	-3.34855E-008	0.00000E+000	-7.00000E-002	5.73368E-005	6	..........a	-327.65
	168	16.9	-7.99642E-002	-3.40438E-008	0.00000E+000	-8.00000E-002	5.69702E-005	6	..........a	-327.65
	169	17	-8.99739E-002	-3.46928E-008	0.00000E+000	-9.00000E-002	5.04368E-005	6	..........a	-327.65
	170	17.1	-9.99684E-002	-3.53937E-008	0.00000E+000	-1.00000E-001	5.61702E-005	6	..........a	-327.65
	171	17.2	-1.09975E-001	-3.61479E-008	0.00000E+000	-1.10000E-001	5.29702E-005	6	..........a	-327.65
	172	17.3	-1.19946E-001	-3.69432E-008	0.00000E+000	-1.20000E-001	5.35035E-005	6	..........a	-327.65
	173	17.4	-1.29992E-001	-3.77920E-008	0.00000E+000	-1.30000E-001	4.99702E-005	6	..........a	-327.65
	174	17.5	-1.39975E-001	-3.87529E-008	0.00000E+000	-1.40000E-001	5.13702E-005	6	..........a	-327.65
	175	17.6	-1.49979E-001	-3.96764E-008	0.00000E+000	-1.50000E-001	5.62702E-005	6	..........a	-327.65
	176	17.7	-1.59916E-001	-4.06320E-008	0.00000E+000	-1.60000E-001	5.33035E-005	6	..........a	-327.65
	177	17.8	-1.69954E-001	-4.16995E-008	0.00000E+000	-1.70000E-001	5.20702E-005	6	..........a	-327.65
	178	17.9	-1.79939E-001	-4.27652E-008	0.00000E+000	-1.80000E-001	6.23035E-005	6	..........a	-327.65
	179	18	-1.90027E-001	-4.37938E-008	0.00000E+000	-1.90000E-001	6.31702E-005	6	..........a	-327.65
	180	18.1	-1.99960E-001	-4.48555E-008	0.00000E+000	-2.00000E-001	6.19035E-005	6	..........a	-327.65
	181	18.2	-2.09977E-001	-4.59880E-008	0.00000E+000	-2.10000E-001	6.42368E-005	6	..........a	-327.65
	182	18.3	-2.19924E-001	-4.71141E-008	0.00000E+000	-2.20000E-001	6.23035E-005	6	..........a	-327.65
	183	18.4	-2.29989E-001	-4.82317E-008	0.00000E+000	-2.30000E-001	6.13702E-005	6	..........a	-327.65
	184	18.5	-2.39943E-001	-4.93640E-008	0.00000E+000	-2.40000E-001	6.15702E-005	6	..........a	-327.65
	185	18.6	-2.49974E-001	-5.04043E-008	0.00000E+000	-2.50000E-001	6.39702E-005	6	..........a	-327.65
	186	18.7	-2.59920E-001	-5.14921E-008	0.00000E+000	-2.60000E-001	6.10035E-005	6	..........a	-327.65
	187	18.8	-2.69931E-001	-5.25440E-008	0.00000E+000	-2.70000E-001	6.43702E-005	6	..........a	-327.65
	188	18.9	-2.79955E-001	-5.36571E-008	0.00000E+000	-2.80000E-001	6.82035E-005	6	..........a	-327.65
	189	19	-2.89945E-001	-5.46748E-008	0.00000E+000	-2.90000E-001	6.54702E-005	6	..........a	-327.65
	190	19.1	-2.99948E-001	-5.57664E-008	0.00000E+000	-3.00000E-001	5.85368E-005	6	..........a	-327.65
	191	19.2	-3.09974E-001	-5.68226E-008	0.00000E+000	-3.10000E-001	5.92035E-005	6	..........a	-327.65
	192	19.3	-3.19920E-001	-5.79263E-008	0.00000E+000	-3.20000E-001	6.15702E-005	6	..........a	-327.65
	193	19.4	-3.29982E-001	-5.91270E-008	0.00000E+000	-3.30000E-001	5.97702E-005	6	..........a	-327.65
	194	19.5	-3.39963E-001	-6.02500E-008	0.00000E+000	-3.40000E-001	5.48368E-005	6	..........a	-327.65
	195	19.6	-3.49973E-001	-6.14461E-008	0.00000E+000	-3.50000E-001	5.99035E-005	6	..........a	-327.65
	196	19.7	-3.59942E-001	-6.27017E-008	0.00000E+000	-3.60000E-001	5.73702E-005	6	..........a	-327.65
	197	19.8	-3.70030E-001	-6.39768E-008	0.00000E+000	-3.70000E-001	5.75702E-005	6	..........a	-327.65
	198	19.9	-3.79941E-001	-6.53448E-008	0.00000E+000	-3.80000E-001	5.69369E-005	6	..........a	-327.65
	199	20	-3.90000E-001	-6.67965E-008	0.00000E+000	-3.90000E-001	6.90035E-005	6	..........a	-327.65
	200	20.1	-3.99958E-001	-6.82825E-008	0.00000E+000	-4.00000E-001	6.66702E-005	6	..........a	-327.65
	201	20.2	-4.10052E-001	-6.98744E-008	0.00000E+000	-4.10000E-001	6.50368E-005	6	..........a	-327.65
	202	20.3	-4.20037E-001	-7.14792E-008	0.00000E+000	-4.20000E-001	6.43035E-005	6	..........a	-327.65
	203	20.4	-4.30041E-001	-7.31741E-008	0.00000E+000	-4.30000E-001	6.97702E-005	6	..........a	-327.65
	204	20.5	-4.40029E-001	-7.49461E-008	0.00000E+000	-4.40000E-001	6.70035E-005	6	..........a	-327.65
	205	20.6	-4.50040E-001	-7.66830E-008	0.00000E+000	-4.50000E-001	6.08368E-005	6	..........a	-327.65
	206	20.7	-4.60041E-001	-7.85073E-008	0.00000E+000	-4.60000E-001	5.87368E-005	6	..........a	-327.65
	207	20.8	-4.70039E-001	-8.03263E-008	0.00000E+000	-4.70000E-001	5.82035E-005	6	..........a	-327.65
	208	20.9	-4.80028E-001	-8.20830E-008	0.00000E+000	-4.80000E-001	5.75035E-005	6	..........a	-327.65
	209	21	-4.90064E-001	-8.38733E-008	0.00000E+000	-4.90000E-001	6.09369E-005	6	..........a	-327.65
	210	21.1	-5.00036E-001	-8.56118E-008	0.00000E+000	-5.00000E-001	6.13368E-005	6	..........a	-327.65
	211	21.2	-5.10075E-001	-8.73354E-008	0.00000E+000	-5.10000E-001	6.25035E-005	6	..........a	-327.65
	212	21.3	-5.20006E-001	-8.89396E-008	0.00000E+000	-5.20000E-001	6.22702E-005	6	..........a	-327.65
	213	21.4	-5.30029E-001	-9.05204E-008	0.00000E+000	-5.30000E-001	6.05368E-005	6	..........a	-327.65
	214	21.5	-5.40026E-001	-9.19889E-008	0.00000E+000	-5.40000E-001	6.14702E-005	6	..........a	-327.65
	215	21.6	-5.50077E-001	-9.35147E-008	0.00000E+000	-5.50000E-001	6.18368E-005	6	..........a	-327.65
	216	21.7	-5.60035E-001	-9.49166E-008	0.00000E+000	-5.60000E-001	6.32702E-005	6	..........a	-327.65
	217	21.8	-5.70039E-001	-9.63982E-008	0.00000E+000	-5.70000E-001	6.46035E-005	6	..........a	-327.65
	218	21.9	-5.80003E-001	-9.78026E-008	0.00000E+000	-5.80000E-001	6.34035E-005	6	..........a	-327.65
	219	22	-5.90061E-001	-9.92502E-008	0.00000E+000	-5.90000E-001	6.45035E-005	6	..........a	-327.65
	220	22.1	-6.00056E-001	-1.00821E-007	0.00000E+000	-6.00000E-001	6.63035E-005	6	..........a	-327.65
CURVE2	TABLE
	Pt	T	Vf	Im	Vu	Sig	Ach	IERange	Over	Temp
	#	s	V vs. Ref.	A	V	V	V	#	bits	deg C
	221	22.2	-5.90102E-001	-6.64089E-008	0.00000E+000	-5.90000E-001	6.76035E-005	6	..........a	-327.65
	222	22.3	-5.80047E-001	-5.48916E-008	0.00000E+000	-5.80000E-001	5.79702E-005	6	..........a	-327.65
	223	22.4	-5.70083E-001	-4.69557E-008	0.00000E+000	-5.70000E-001	6.15035E-005	6	..........a	-327.65
	224	22.5	-5.60077E-001	-4.10276E-008	0.00000E+000	-5.60000E-001	6.20035E-005	6	..........a	-327.65
	225	22.6	-5.50117E-001	-3.65244E-008	0.00000E+000	-5.50000E-001	6.13702E-005	6	..........a	-327.65
	226	22.7	-5.40076E-001	-3.28941E-008	0.00000E+000	-5.40000E-001	5.68035E-005	6	..........a	-327.65
	227	22.8	-5.30078E-001	-3.00769E-008	0.00000E+000	-5.30000E-001	6.24368E-005	6	..........a	-327.65
	228	22.9	-5.20062E-001	-2.76618E-008	0.00000E+000	-5.20000E-001	6.27368E-005	6	..........a	-327.65
	229	23	-5.10122E-001	-2.56078E-008	0.00000E+000	-5.10000E-001	5.87702E-005	6	..........a	-327.65
	230	23.1	-5.00090E-001	-2.37874E-008	0.00000E+000	-5.00000E-001	5.57368E-005	6	..........a	-327.65
	231	23.2	-4.90121E-001	-2.21005E-008	0.00000E+000	-4.90000E-001	4.91035E-005	6	..........a	-327.65
	232	23.3	-4.80083E-001	-2.05183E-008	0.00000E+000	-4.80000E-001	5.18702E-005	6	..........a	-327.65
	233	23.4	-4.70112E-001	-1.89843E-008	0.00000E+000	-4.70000E-001	5.22035E-005	6	..........a	-327.65
	234	23.5	-4.60098E-001	-1.74261E-008	0.00000E+000	-4.60000E-001	5.11368E-005	6	..........a	-327.65
	235	23.6	-4.50098E-001	-1.59533E-008	0.00000E+000	-4.50000E-001	5.74035E-005	6	..........a	-327.65
	236	23.7	-4.40092E-001	-1.44238E-008	0.00000E+000	-4.40000E-001	5.02702E-005	6	..........a	-327.65
	237	23.8	-4.30097E-001	-1.29304E-008	0.00000E+000	-4.30000E-001	5.47368E-005	6	..........a	-327.65
	238	23.9	-4.20094E-001	-1.14439E-008	0.00000E+000	-4.20000E-001	5.63035E-005	6	..........a	-327.65
	239	24	-4.10109E-001	-9.88719E-009	0.00000E+000	-4.10000E-001	5.51035E-005	6	..........a	-327.65
	240	24.1	-4.00019E-001	-8.32293E-009	0.00000E+000	-4.00000E-001	5.49702E-005	6	..........a	-327.65
	241	24.2	-3.90061E-001	-6.75430E-009	0.00000E+000	-3.90000E-001	5.52368E-005	6	..........a	-327.65
	242	24.3	-3.80001E-001	-5.18231E-009	0.00000E+000	-3.80000E-001	5.80702E-005	6	..........a	-327.65
	243	24.4	-3.70094E-001	-3.67833E-009	0.00000E+000	-3.70000E-001	5.24702E-005	6	..........a	-327.65
	244	24.5	-3.60010E-001	-2.17589E-009	0.00000E+000	-3.60000E-001	5.00035E-005	6	..........a	-327.65
	245	24.6	-3.50026E-001	-7.65310E-010	0.00000E+000	-3.50000E-001	5.49702E-005	6	..........a	-327.65
	246	24.7	-3.40015E-001	4.86424E-010	0.00000E+000	-3.40000E-001	5.58368E-005	6	..........a	-327.65
	247	24.8	-3.30042E-001	1.79968E-009	0.00000E+000	-3.30000E-001	5.32702E-005	6	..........a	-327.65
	248	24.9	-3.20004E-001	2.94908E-009	0.00000E+000	-3.20000E-001	5.17035E-005	6	..........a	-327.65
	249	25	-3.10043E-001	4.13906E-009	0.00000E+000	-3.10000E-001	5.12702E-005	6	..........a	-327.65
	250	25.1	-3.00013E-001	5.12059E-009	0.00000E+000	-3.00000E-001	4.83702E-005	6	..........a	-327.65
	251	25.2	-2.90043E-001	6.16609E-009	0.00000E+000	-2.90000E-001	5.21368E-005	6	..........a	-327.65
	252	25.3	-2.80025E-001	7.11777E-009	0.00000E+000	-2.80000E-001	4.73702E-005	6	..........a	-327.65
	253	25.4	-2.69999E-001	8.12867E-009	0.00000E+000	-2.70000E-001	5.05702E-005	6	..........a	-327.65
	254	25.5	-2.59980E-001	9.07121E-009	0.00000E+000	-2.60000E-001	4.89702E-005	6	..........a	-327.65
	255	25.6	-2.50029E-001	9.98565E-009	0.00000E+000	-2.50000E-001	5.04368E-005	6	..........a	-327.65
	256	25.7	-2.40006E-001	1.08899E-008	0.00000E+000	-2.40000E-001	4.99368E-005	6	..........a	-327.65
	257	25.8	-2.30046E-001	1.17815E-008	0.00000E+000	-2.30000E-001	5.13702E-005	6	..........a	-327.65
	258	25.9	-2.19982E-001	1.26406E-008	0.00000E+000	-2.20000E-001	4.94702E-005	6	..........a	-327.65
	259	26	-2.10037E-001	1.34635E-008	0.00000E+000	-2.10000E-001	5.34035E-005	6	..........a	-327.65
	260	26.1	-2.00023E-001	1.43150E-008	0.00000E+000	-2.00000E-001	4.97035E-005	6	..........a	-327.65
	261	26.2	-1.90084E-001	1.50955E-008	0.00000E+000	-1.90000E-001	5.08035E-005	6	..........a	-327.65
	262	26.3	-1.79996E-001	1.60639E-008	0.00000E+000	-1.80000E-001	4.92702E-005	6	..........a	-327.65
	263	26.4	-1.70004E-001	1.68578E-008	0.00000E+000	-1.70000E-001	4.88702E-005	6	..........a	-327.65
	264	26.5	-1.59979E-001	1.76658E-008	0.00000E+000	-1.60000E-001	4.94035E-005	6	..........a	-327.65
	265	26.6	-1.50028E-001	1.84791E-008	0.00000E+000	-1.50000E-001	4.81702E-005	6	..........a	-327.65
	266	26.7	-1.40022E-001	1.92947E-008	0.00000E+000	-1.40000E-001	4.41702E-005	6	..........a	-327.65
	267	26.8	-1.30042E-001	2.00774E-008	0.00000E+000	-1.30000E-001	4.64368E-005	6	..........a	-327.65
	268	26.9	-1.20002E-001	2.09004E-008	0.00000E+000	-1.20000E-001	4.49035E-005	6	..........a	-327.65
	269	27	-1.10031E-001	2.17307E-008	0.00000E+000	-1.10000E-001	4.45702E-005	6	..........a	-327.65
	270	27.1	-1.00015E-001	2.23900E-008	0.00000E+000	-1.00000E-001	4.18702E-005	6	..........a	-327.65
	271	27.2	-9.00238E-002	2.31147E-008	0.00000E+000	-9.00000E-002	4.45702E-005	6	..........a	-327.65
	272	27.3	-8.00204E-002	2.39132E-008	0.00000E+000	-8.00000E-002	4.17035E-005	6	..........a	-327.65
	273	27.4	-7.00101E-002	2.48251E-008	0.00000E+000	-7.00000E-002	4.38368E-005	6	..........a	-327.65
	274	27.5	-6.00094E-002	2.56670E-008	0.00000E+000	-6.00000E-002	3.81702E-005	6	..........a	-327.65
	275	27.6	-5.00608E-002	2.64536E-008	0.00000E+000	-5.00000E-002	3.44368E-005	6	..........a	-327.65
	276	27.7	-4.00149E-002	2.72065E-008	0.00000E+000	-4.00000E-002	4.06035E-005	6	..........a	-327.65
	277	27.8	-3.00509E-002	2.80482E-008	0.00000E+000	-3.00000E-002	4.06702E-005	6	..........a	-327.65
	278	27.9	-1.99915E-002	2.89051E-008	0.00000E+000	-2.00000E-002	3.46368E-005	6	..........a	-327.65
	279	28	-1.00429E-002	2.97665E-008	0.00000E+000	-1.00000E-002	3.97702E-005	6	..........a	-327.65
	280	28.1	6.20538E-005	3.06569E-008	0.00000E+000	7.45058E-009	3.59035E-005	6	..........a	-327.65
	281	28.2	1.01139E-002	3.15838E-008	0.00000E+000	1.00000E-002	4.11702E-005	6	..........a	-327.65
	282	28.3	2.00842E-002	3.24840E-008	0.00000E+000	2.00000E-002	4.01035E-005	6	..........a	-327.65
	283	28.4	3.00928E-002	3.34352E-008	0.00000E+000	3.00000E-002	3.90702E-005	6	..........a	-327.65
	284	28.5	4.00744E-002	3.44414E-008	0.00000E+000	4.00000E-002	4.01035E-005	6	..........a	-327.65
	285	28.6	5.01042E-002	3.54465E-008	0.00000E+000	5.00000E-002	4.10035E-005	6	..........a	-327.65
	286	28.7	6.01153E-002	3.64671E-008	0.00000E+000	6.00000E-002	3.88702E-005	6	..........a	-327.65
	287	28.8	7.00793E-002	3.75282E-008	0.00000E+000	7.00000E-002	4.37369E-005	6	..........a	-327.65
	288	28.9	8.00903E-002	3.86465E-008	0.00000E+000	8.00000E-002	4.39368E-005	6	..........a	-327.65
	289	29	9.00474E-002	3.97610E-008	0.00000E+000	9.00000E-002	4.33702E-005	6	..........a	-327.65
	290	29.1	1.00108E-001	4.08993E-008	0.00000E+000	1.00000E-001	4.78368E-005	6	..........a	-327.65
	291	29.2	1.10084E-001	4.20799E-008	0.00000E+000	1.10000E-001	4.50702E-005	6	..........a	-327.65
	292	29.3	1.20081E-001	4.33321E-008	0.00000E+000	1.20000E-001	4.33368E-005	6	..........a	-327.65
	293	29.4	1.30087E-001	4.45327E-008	0.00000E+000	1.30000E-001	4.02035E-005	6	..........a	-327.65
	294	29.5	1.40126E-001	4.57560E-008	0.00000E+000	1.40000E-001	4.05702E-005	6	..........a	-327.65
	295	29.6	1.50095E-001	4.69392E-008	0.00000E+000	1.50000E-001	4.63035E-005	6	..........a	-327.65
	296	29.7	1.60085E-001	4.81565E-008	0.00000E+000	1.60000E-001	4.96369E-005	6	..........a	-327.65
	297	29.8	1.70090E-001	4.93043E-008	0.00000E+000	1.70000E-001	5.06035E-005	6	..........a	-327.65
	298	29.9	1.80090E-001	5.03788E-008	0.00000E+000	1.80000E-001	4.78035E-005	6	..........a	-327.65
	299	30	1.90105E-001	5.14710E-008	0.00000E+000	1.90000E-001	4.63702E-005	6	..........a	-327.65
	300	30.1	2.00089E-001	5.25036E-008	0.00000E+000	2.00000E-001	4.95035E-005	6	..........a	-327.65
	301	30.2	2.10092E-001	5.34650E-008	0.00000E+000	2.10000E-001	4.96702E-005	6	..........a	-327.65
	302	30.3	2.20128E-001	5.43370E-008	0.00000E+000	2.20000E-001	4.95035E-005	6	..........a	-327.65
	303	30.4	2.30082E-001	5.51476E-008	0.00000E+000	2.30000E-001	4.90702E-005	6	..........a	-327.65
	304	30.5	2.40106E-001	5.58625E-008	0.00000E+000	2.40000E-001	5.49702E-005	6	..........a	-327.65
	305	30.6	2.50113E-001	5.64592E-008	0.00000E+000	2.50000E-001	4.96702E-005	6	..........a	-327.65
	306	30.7	2.60099E-001	5.69872E-008	0.00000E+000	2.60000E-001	4.67702E-005	6	..........a	-327.65
	307	30.8	2.70032E-001	5.74114E-008	0.00000E+000	2.70000E-001	4.19368E-005	6	..........a	-327.65
	308	30.9	2.80081E-001	5.77079E-008	0.00000E+000	2.80000E-001	4.81702E-005	6	..........a	-327.65
	309	31	2.90113E-001	5.79058E-008	0.00000E+000	2.90000E-001	4.40368E-005	6	..........a	-327.65
	310	31.1	3.00145E-001	5.80356E-008	0.00000E+000	3.00000E-001	4.63368E-005	6	..........a	-327.65
	311	31.2	3.10074E-001	5.80599E-008	0.00000E+000	3.10000E-001	4.87702E-005	6	..........a	-327.65
	312	31.3	3.20083E-001	5.79755E-008	0.00000E+000	3.20000E-001	4.76035E-005	6	..........a	-327.65
	313	31.4	3.30085E-001	5.78370E-008	0.00000E+000	3.30000E-001	4.73035E-005	6	..........a	-327.65
	314	31.5	3.40102E-001	5.75328E-008	0.00000E+000	3.40000E-001	4.74702E-005	6	..........a	-327.65
	315	31.6	3.50087E-001	5.71959E-008	0.00000E+000	3.50000E-001	4.77369E-005	6	..........a	-327.65
	316	31.7	3.60067E-001	5.68907E-008	0.00000E+000	3.60000E-001	4.76035E-005	6	..........a	-327.65
	317	31.8	3.70104E-001	5.64176E-008	0.00000E+000	3.70000E-001	4.22702E-005	6	..........a	-327.65
	318	31.9	3.80117E-001	5.59898E-008	0.00000E+000	3.80000E-001	5.00035E-005	6	..........a	-327.65
	319	32	3.90094E-001	5.54829E-008	0.00000E+000	3.90000E-001	4.69368E-005	6	..........a	-327.65
	320	32.1	4.00119E-001	5.50235E-008	0.00000E+000	4.00000E-001	4.42368E-005	6	..........a	-327.65
	321	32.2	4.10149E-001	5.45770E-008	0.00000E+000	4.10000E-001	4.59369E-005	6	..........a	-327.65
	322	32.3	4.20169E-001	5.41275E-008	0.00000E+000	4.20000E-001	5.45368E-005	6	..........a	-327.65
	323	32.4	4.30125E-001	5.36847E-008	0.00000E+000	4.30000E-001	4.69702E-005	6	..........a	-327.65
	324	32.5	4.40146E-001	5.33136E-008	0.00000E+000	4.40000E-001	4.24368E-005	6	..........a	-327.65
	325	32.6	4.50121E-001	5.29507E-008	0.00000E+000	4.50000E-001	4.24035E-005	6	..........a	-327.65
	326	32.7	4.60180E-001	5.26412E-008	0.00000E+000	4.60000E-001	4.31368E-005	6	..........a	-327.65
	327	32.8	4.70147E-001	5.23762E-008	0.00000E+000	4.70000E-001	4.49035E-005	6	..........a	-327.65
	328	32.9	4.80141E-001	5.21275E-008	0.00000E+000	4.80000E-001	4.56035E-005	6	..........a	-327.65
	329	33	4.90161E-001	5.19161E-008	0.00000E+000	4.90000E-001	4.34702E-005	6	..........a	-327.65
	330	33.1	5.00117E-001	5.17516E-008	0.00000E+000	5.00000E-001	4.69702E-005	6	..........a	-327.65
	331	33.2	5.10134E-001	5.16012E-008	0.00000E+000	5.10000E-001	4.18702E-005	6	..........a	-327.65
	332	33.3	5.20140E-001	5.15169E-008	0.00000E+000	5.20000E-001	4.46369E-005	6	..........a	-327.65
	333	33.4	5.30133E-001	5.14245E-008	0.00000E+000	5.30000E-001	4.82368E-005	6	..........a	-327.65
	334	33.5	5.40166E-001	5.13543E-008	0.00000E+000	5.40000E-001	4.29369E-005	6	..........a	-327.65
	335	33.6	5.50165E-001	5.13195E-008	0.00000E+000	5.50000E-001	4.62035E-005	6	..........a	-327.65
	336	33.7	5.60143E-001	5.13213E-008	0.00000E+000	5.60000E-001	5.04368E-005	6	..........a	-327.65
	337	33.8	5.70168E-001	5.13296E-008	0.00000E+000	5.70000E-001	4.59702E-005	6	..........a	-327.65
	338	33.9	5.80205E-001	5.13819E-008	0.00000E+000	5.80000E-001	4.77369E-005	6	..........a	-327.65
	339	34	5.90130E-001	5.14372E-008	0.00000E+000	5.90000E-001	5.40368E-005	6	..........a	-327.65
	340	34.1	6.00165E-001	5.15306E-008	0.00000E+000	6.00000E-001	5.30035E-005	6	..........a	-327.65
	341	34.2	6.10154E-001	5.16335E-008	0.00000E+000	6.10000E-001	4.45702E-005	6	..........a	-327.65
	342	34.3	6.20165E-001	5.17739E-008	0.00000E+000	6.20000E-001	4.95368E-005	6	..........a	-327.65
	343	34.4	6.30149E-001	5.19656E-008	0.00000E+000	6.30000E-001	4.93035E-005	6	..........a	-327.65
	344	34.5	6.40123E-001	5.21839E-008	0.00000E+000	6.40000E-001	4.56702E-005	6	..........a	-327.65
	345	34.6	6.50179E-001	5.24293E-008	0.00000E+000	6.50000E-001	4.83368E-005	6	..........a	-327.65
	346	34.7	6.60153E-001	5.27081E-008	0.00000E+000	6.60000E-001	4.75702E-005	6	..........a	-327.65
	347	34.8	6.70137E-001	5.30296E-008	0.00000E+000	6.70000E-001	4.79035E-005	6	..........a	-327.65
	348	34.9	6.80112E-001	5.33944E-008	0.00000E+000	6.80000E-001	4.47368E-005	6	..........a	-327.65
	349	35	6.90148E-001	5.38383E-008	0.00000E+000	6.90000E-001	4.75035E-005	6	..........a	-327.65
	350	35.1	7.00179E-001	5.43261E-008	0.00000E+000	7.00000E-001	5.17035E-005	6	..........a	-327.65
	351	35.2	7.10155E-001	5.48602E-008	0.00000E+000	7.10000E-001	5.06368E-005	6	..........a	-327.65
	352	35.3	7.20127E-001	5.54886E-008	0.00000E+000	7.20000E-001	5.00035E-005	6	..........a	-327.65
	353	35.4	7.30079E-001	5.62239E-008	0.00000E+000	7.30000E-001	5.09702E-005	6	..........a	-327.65
	354	35.5	7.40143E-001	5.70479E-008	0.00000E+000	7.40000E-001	4.37369E-005	6	..........a	-327.65
	355	35.6	7.50152E-001	5.79577E-008	0.00000E+000	7.50000E-001	5.05702E-005	6	..........a	-327.65
	356	35.7	7.60161E-001	5.89598E-008	0.00000E+000	7.60000E-001	4.87035E-005	6	..........a	-327.65
	357	35.8	7.70129E-001	6.01390E-008	0.00000E+000	7.70000E-001	4.66035E-005	6	..........a	-327.65
	358	35.9	7.80164E-001	6.14099E-008	0.00000E+000	7.80000E-001	4.25702E-005	6	..........a	-327.65
	359	36	7.90136E-001	6.28121E-008	0.00000E+000	7.90000E-001	4.52702E-005	6	..........a	-327.65
	360	36.1	8.00149E-001	6.42900E-008	0.00000E+000	8.00000E-001	5.26702E-005	6	..........a	-327.65
	361	36.2	7.90178E-001	2.96885E-008	0.00000E+000	7.90000E-001	4.74035E-005	6	..........a	-327.65
	362	36.3	7.80201E-001	1.90530E-008	0.00000E+000	7.80000E-001	3.50035E-005	6	..........a	-327.65
	363	36.4	7.70171E-001	1.16668E-008	0.00000E+000	7.70000E-001	4.08702E-005	6	..........a	-327.65
	364	36.5	7.60200E-001	6.15602E-009	0.00000E+000	7.60000E-001	4.11035E-005	6	..........a	-327.65
	365	36.6	7.50187E-001	1.93108E-009	0.00000E+000	7.50000E-001	4.77702E-005	6	..........a	-327.65
	366	36.7	7.40185E-001	-1.35955E-009	0.00000E+000	7.40000E-001	4.68702E-005	6	..........a	-327.65
	367	36.8	7.30120E-001	-4.02273E-009	0.00000E+000	7.30000E-001	4.63035E-005	6	..........a	-327.65
	368	36.9	7.20167E-001	-6.18307E-009	0.00000E+000	7.20000E-001	5.12035E-005	6	..........a	-327.65
	369	37	7.10187E-001	-7.97113E-009	0.00000E+000	7.10000E-001	4.73035E-005	6	..........a	-327.65
[...]
	1204	120.5	7.60198E-001	5.24749E-009	0.00000E+000	7.60000E-001	2.46035E-005	6	..........a	-327.65
	1205	120.6	7.50193E-001	9.31255E-010	0.00000E+000	7.50000E-001	2.34035E-005	6	..........a	-327.65
	1206	120.7	7.40186E-001	-2.43510E-009	0.00000E+000	7.40000E-001	3.02035E-005	6	..........a	-327.65
	1207	120.8	7.30126E-001	-5.11856E-009	0.00000E+000	7.30000E-001	3.18368E-005	6	..........a	-327.65
	1208	120.9	7.20164E-001	-7.32550E-009	0.00000E+000	7.20000E-001	3.11035E-005	6	..........a	-327.65
	1209	121	7.10190E-001	-9.11240E-009	0.00000E+000	7.10000E-001	3.43369E-005	6	..........a	-327.65
	1210	121.1	7.00216E-001	-1.05719E-008	0.00000E+000	7.00000E-001	3.36368E-005	6	..........a	-327.65
	1211	121.2	6.90187E-001	-1.18134E-008	0.00000E+000	6.90000E-001	3.03035E-005	6	..........a	-327.65
	1212	121.3	6.80150E-001	-1.29175E-008	0.00000E+000	6.80000E-001	3.15702E-005	6	..........a	-327.65
	1213	121.4	6.70177E-001	-1.39510E-008	0.00000E+000	6.70000E-001	2.89368E-005	6	..........a	-327.65
	1214	121.5	6.60197E-001	-1.47430E-008	0.00000E+000	6.60000E-001	2.89702E-005	6	..........a	-327.65
	1215	121.6	6.50218E-001	-1.55059E-008	0.00000E+000	6.50000E-001	2.62702E-005	6	..........a	-327.65
	1216	121.7	6.40161E-001	-1.61044E-008	0.00000E+000	6.40000E-001	3.13368E-005	6	..........a	-327.65
	1217	121.8	6.30188E-001	-1.66669E-008	0.00000E+000	6.30000E-001	2.84035E-005	6	..........a	-327.65
	1218	121.9	6.20205E-001	-1.72905E-008	0.00000E+000	6.20000E-001	2.85702E-005	6	..........a	-327.65
	1219	122	6.10191E-001	-1.76578E-008	0.00000E+000	6.10000E-001	2.97035E-005	6	..........a	-327.65
	1220	122.1	6.00205E-001	-1.81929E-008	0.00000E+000	6.00000E-001	3.65702E-005	6	..........a	-327.65
	1221	122.2	5.90172E-001	-1.86186E-008	0.00000E+000	5.90000E-001	3.81368E-005	6	..........a	-327.65
	1222	122.3	5.80247E-001	-1.90738E-008	0.00000E+000	5.80000E-001	3.41702E-005	6	..........a	-327.65
	1223	122.4	5.70209E-001	-1.95147E-008	0.00000E+000	5.70000E-001	3.35035E-005	6	..........a	-327.65
	1224	122.5	5.60187E-001	-2.06074E-008	0.00000E+000	5.60000E-001	3.19702E-005	6	..........a	-327.65
	1225	122.6	5.50212E-001	-2.07102E-008	0.00000E+000	5.50000E-001	3.18035E-005	6	..........a	-327.65
	1226	122.7	5.40214E-001	-2.09234E-008	0.00000E+000	5.40000E-001	3.18035E-005	6	..........a	-327.65
	1227	122.8	5.30176E-001	-2.09984E-008	0.00000E+000	5.30000E-001	2.76035E-005	6	..........a	-327.65
	1228	122.9	5.20184E-001	-2.10991E-008	0.00000E+000	5.20000E-001	3.47368E-005	6	..........a	-327.65
	1229	123	5.10182E-001	-2.13481E-008	0.00000E+000	5.10000E-001	3.02035E-005	6	..........a	-327.65
	1230	123.1	5.00163E-001	-2.15526E-008	0.00000E+000	5.00000E-001	3.00035E-005	6	..........a	-327.65
	1231	123.2	4.90207E-001	-2.17982E-008	0.00000E+000	4.90000E-001	3.50369E-005	6	..........a	-327.65
	1232	123.3	4.80179E-001	-2.20248E-008	0.00000E+000	4.80000E-001	3.27035E-005	6	..........a	-327.65
	1233	123.4	4.70189E-001	-2.22199E-008	0.00000E+000	4.70000E-001	3.27035E-005	6	..........a	-327.65
	1234	123.5	4.60226E-001	-2.24740E-008	0.00000E+000	4.60000E-001	3.74368E-005	6	..........a	-327.65
	1235	123.6	4.50152E-001	-2.27105E-008	0.00000E+000	4.50000E-001	3.86035E-005	6	..........a	-327.65
	1236	123.7	4.40185E-001	-2.29167E-008	0.00000E+000	4.40000E-001	3.80035E-005	6	..........a	-327.65
	1237	123.8	4.30167E-001	-2.31286E-008	0.00000E+000	4.30000E-001	4.07035E-005	6	..........a	-327.65
	1238	123.9	4.20213E-001	-2.33167E-008	0.00000E+000	4.20000E-001	4.14035E-005	6	..........a	-327.65
	1239	124	4.10192E-001	-2.34907E-008	0.00000E+000	4.10000E-001	3.44702E-005	6	..........a	-327.65
	1240	124.1	4.00162E-001	-2.36851E-008	0.00000E+000	4.00000E-001	3.29702E-005	6	..........a	-327.65
	1241	124.2	3.90133E-001	-2.38362E-008	0.00000E+000	3.90000E-001	3.57368E-005	6	..........a	-327.65
	1242	124.3	3.80158E-001	-2.39598E-008	0.00000E+000	3.80000E-001	3.72035E-005	6	..........a	-327.65
	1243	124.4	3.70148E-001	-2.41187E-008	0.00000E+000	3.70000E-001	3.72035E-005	6	..........a	-327.65
	1244	124.5	3.60110E-001	-2.42608E-008	0.00000E+000	3.60000E-001	3.53702E-005	6	..........a	-327.65
	1245	124.6	3.50136E-001	-2.44227E-008	0.00000E+000	3.50000E-001	3.38702E-005	6	..........a	-327.65
	1246	124.7	3.40150E-001	-2.45721E-008	0.00000E+000	3.40000E-001	3.12035E-005	6	..........a	-327.65
	1247	124.8	3.30130E-001	-2.47269E-008	0.00000E+000	3.30000E-001	2.93702E-005	6	..........a	-327.65
	1248	124.9	3.20128E-001	-2.48652E-008	0.00000E+000	3.20000E-001	3.21035E-005	6	..........a	-327.65
	1249	125	3.10116E-001	-2.50548E-008	0.00000E+000	3.10000E-001	3.21702E-005	6	..........a	-327.65
	1250	125.1	3.00189E-001	-2.52123E-008	0.00000E+000	3.00000E-001	3.53368E-005	6	..........a	-327.65
	1251	125.2	2.90164E-001	-2.53991E-008	0.00000E+000	2.90000E-001	3.33702E-005	6	..........a	-327.65
	1252	125.3	2.80124E-001	-2.56052E-008	0.00000E+000	2.80000E-001	3.01702E-005	6	..........a	-327.65
	1253	125.4	2.70077E-001	-2.57885E-008	0.00000E+000	2.70000E-001	2.84702E-005	6	..........a	-327.65
	1254	125.5	2.60150E-001	-2.60172E-008	0.00000E+000	2.60000E-001	2.95035E-005	6	..........a	-327.65
	1255	125.6	2.50156E-001	-2.62840E-008	0.00000E+000	2.50000E-001	3.05035E-005	6	..........a	-327.65
	1256	125.7	2.40152E-001	-2.65657E-008	0.00000E+000	2.40000E-001	2.95035E-005	6	..........a	-327.65
	1257	125.8	2.30125E-001	-2.68752E-008	0.00000E+000	2.30000E-001	2.64035E-005	6	..........a	-327.65
	1258	125.9	2.20166E-001	-2.71768E-008	0.00000E+000	2.20000E-001	3.19368E-005	6	..........a	-327.65
	1259	126	2.10140E-001	-2.74842E-008	0.00000E+000	2.10000E-001	3.59035E-005	6	..........a	-327.65
	1260	126.1	2.00133E-001	-2.78147E-008	0.00000E+000	2.00000E-001	3.31702E-005	6	..........a	-327.65
	1261	126.2	1.90151E-001	-2.81835E-008	0.00000E+000	1.90000E-001	2.77035E-005	6	..........a	-327.65
	1262	126.3	1.80135E-001	-2.85627E-008	0.00000E+000	1.80000E-001	2.74035E-005	6	..........a	-327.65
	1263	126.4	1.70145E-001	-2.89357E-008	0.00000E+000	1.70000E-001	2.39368E-005	6	..........a	-327.65
	1264	126.5	1.60131E-001	-2.93213E-008	0.00000E+000	1.60000E-001	2.81035E-005	6	..........a	-327.65
	1265	126.6	1.50140E-001	-2.97704E-008	0.00000E+000	1.50000E-001	2.56035E-005	6	..........a	-327.65
	1266	126.7	1.40173E-001	-3.01670E-008	0.00000E+000	1.40000E-001	2.74035E-005	6	..........a	-327.65
	1267	126.8	1.30132E-001	-3.05390E-008	0.00000E+000	1.30000E-001	2.43035E-005	6	..........a	-327.65
	1268	126.9	1.20128E-001	-3.09705E-008	0.00000E+000	1.20000E-001	3.31702E-005	6	..........a	-327.65
	1269	127	1.10131E-001	-3.14009E-008	0.00000E+000	1.10000E-001	3.35702E-005	6	..........a	-327.65
	1270	127.1	1.00159E-001	-3.18316E-008	0.00000E+000	1.00000E-001	2.54702E-005	6	..........a	-327.65
	1271	127.2	9.00926E-002	-3.22454E-008	0.00000E+000	9.00000E-002	2.71035E-005	6	..........a	-327.65
	1272	127.3	8.01396E-002	-3.26812E-008	0.00000E+000	8.00000E-002	2.75035E-005	6	..........a	-327.65
	1273	127.4	7.01252E-002	-3.31336E-008	0.00000E+000	7.00000E-002	2.26035E-005	6	..........a	-327.65
	1274	127.5	6.01679E-002	-3.35146E-008	0.00000E+000	6.00000E-002	2.46369E-005	6	..........a	-327.65
	1275	127.6	5.01511E-002	-3.39634E-008	0.00000E+000	5.00000E-002	2.12035E-005	6	..........a	-327.65
	1276	127.7	4.01275E-002	-3.43763E-008	0.00000E+000	4.00000E-002	2.98368E-005	6	..........a	-327.65
	1277	127.8	3.01409E-002	-3.48403E-008	0.00000E+000	3.00000E-002	2.67368E-005	6	..........a	-327.65
	1278	127.9	2.01356E-002	-3.52639E-008	0.00000E+000	2.00000E-002	2.95702E-005	6	..........a	-327.65
	1279	128	1.01685E-002	-3.57023E-008	0.00000E+000	1.00000E-002	3.15368E-005	6	..........a	-327.65
	1280	128.1	1.16313E-004	-3.60903E-008	0.00000E+000	7.45058E-009	2.94035E-005	6	..........a	-327.65
	1281	128.2	-9.98925E-003	-3.65591E-008	0.00000E+000	-1.00000E-002	2.84702E-005	6	..........a	-327.65
	1282	128.3	-1.99451E-002	-3.69985E-008	0.00000E+000	-2.00000E-002	2.40368E-005	6	..........a	-327.65
	1283	128.4	-3.00030E-002	-3.74439E-008	0.00000E+000	-3.00000E-002	3.61702E-005	6	..........a	-327.65
	1284	128.5	-3.99632E-002	-3.79057E-008	0.00000E+000	-4.00000E-002	3.41369E-005	6	..........a	-327.65
	1285	128.6	-5.00122E-002	-3.83845E-008	0.00000E+000	-5.00000E-002	2.73035E-005	6	..........a	-327.65
	1286	128.7	-5.99530E-002	-3.88851E-008	0.00000E+000	-6.00000E-002	3.42368E-005	6	..........a	-327.65
	1287	128.8	-6.99622E-002	-3.93636E-008	0.00000E+000	-7.00000E-002	3.15368E-005	6	..........a	-327.65
	1288	128.9	-7.99566E-002	-3.98890E-008	0.00000E+000	-8.00000E-002	3.39702E-005	6	..........a	-327.65
	1289	129	-8.99743E-002	-4.04138E-008	0.00000E+000	-9.00000E-002	3.79368E-005	6	..........a	-327.65
	1290	129.1	-9.99661E-002	-4.09532E-008	0.00000E+000	-1.00000E-001	3.44035E-005	6	..........a	-327.65
	1291	129.2	-1.09962E-001	-4.14820E-008	0.00000E+000	-1.10000E-001	3.46035E-005	6	..........a	-327.65
	1292	129.3	-1.19939E-001	-4.20714E-008	0.00000E+000	-1.20000E-001	3.93702E-005	6	..........a	-327.65
	1293	129.4	-1.29986E-001	-4.26507E-008	0.00000E+000	-1.30000E-001	3.88702E-005	6	..........a	-327.65
	1294	129.5	-1.39973E-001	-4.32554E-008	0.00000E+000	-1.40000E-001	3.78035E-005	6	..........a	-327.65
	1295	129.6	-1.49979E-001	-4.38863E-008	0.00000E+000	-1.50000E-001	3.60368E-005	6	..........a	-327.65
	1296	129.7	-1.59916E-001	-4.45679E-008	0.00000E+000	-1.60000E-001	3.57368E-005	6	..........a	-327.65
	1297	129.8	-1.69952E-001	-4.51914E-008	0.00000E+000	-1.70000E-001	3.99035E-005	6	..........a	-327.65
	1298	129.9	-1.79938E-001	-4.58730E-008	0.00000E+000	-1.80000E-001	3.49702E-005	6	..........a	-327.65
	1299	130	-1.90029E-001	-4.65444E-008	0.00000E+000	-1.90000E-001	3.59368E-005	6	..........a	-327.65
	1300	130.1	-1.99960E-001	-4.72703E-008	0.00000E+000	-2.00000E-001	4.30035E-005	6	..........a	-327.65
	1301	130.2	-2.09975E-001	-4.79067E-008	0.00000E+000	-2.10000E-001	3.57035E-005	6	..........a	-327.65
	1302	130.3	-2.19928E-001	-4.86058E-008	0.00000E+000	-2.20000E-001	3.76035E-005	6	..........a	-327.65
	1303	130.4	-2.29985E-001	-4.93365E-008	0.00000E+000	-2.30000E-001	3.88368E-005	6	..........a	-327.65
	1304	130.5	-2.39951E-001	-5.00419E-008	0.00000E+000	-2.40000E-001	4.37035E-005	6	..........a	-327.65
	1305	130.6	-2.49976E-001	-5.07872E-008	0.00000E+000	-2.50000E-001	4.02368E-005	6	..........a	-327.65
	1306	130.7	-2.59924E-001	-5.15042E-008	0.00000E+000	-2.60000E-001	3.42368E-005	6	..........a	-327.65
	1307	130.8	-2.69939E-001	-5.21563E-008	0.00000E+000	-2.70000E-001	3.72368E-005	6	..........a	-327.65
	1308	130.9	-2.79959E-001	-5.28048E-008	0.00000E+000	-2.80000E-001	3.93368E-005	6	..........a	-327.65
	1309	131	-2.89951E-001	-5.35004E-008	0.00000E+000	-2.90000E-001	3.46368E-005	6	..........a	-327.65
	1310	131.1	-2.99954E-001	-5.41704E-008	0.00000E+000	-3.00000E-001	4.00369E-005	6	..........a	-327.65
	1311	131.2	-3.09978E-001	-5.48650E-008	0.00000E+000	-3.10000E-001	4.07035E-005	6	..........a	-327.65
	1312	131.3	-3.19925E-001	-5.55649E-008	0.00000E+000	-3.20000E-001	4.21368E-005	6	..........a	-327.65
	1313	131.4	-3.29983E-001	-5.62862E-008	0.00000E+000	-3.30000E-001	4.01368E-005	6	..........a	-327.65
	1314	131.5	-3.39963E-001	-5.69410E-008	0.00000E+000	-3.40000E-001	4.01368E-005	6	..........a	-327.65
	1315	131.6	-3.49972E-001	-5.75868E-008	0.00000E+000	-3.50000E-001	3.74368E-005	6	..........a	-327.65
	1316	131.7	-3.59945E-001	-5.83146E-008	0.00000E+000	-3.60000E-001	3.59702E-005	6	..........a	-327.65
	1317	131.8	-3.70037E-001	-5.89763E-008	0.00000E+000	-3.70000E-001	3.61368E-005	6	..........a	-327.65
	1318	131.9	-3.79948E-001	-5.96716E-008	0.00000E+000	-3.80000E-001	3.99368E-005	6	..........a	-327.65
	1319	132	-3.90005E-001	-6.03278E-008	0.00000E+000	-3.90000E-001	3.78702E-005	6	..........a	-327.65
	1320	132.1	-3.99963E-001	-6.10268E-008	0.00000E+000	-4.00000E-001	3.80369E-005	6	..........a	-327.65
	1321	132.2	-4.10055E-001	-6.16888E-008	0.00000E+000	-4.10000E-001	3.89035E-005	6	..........a	-327.65
	1322	132.3	-4.20048E-001	-6.23507E-008	0.00000E+000	-4.20000E-001	4.20702E-005	6	..........a	-327.65
	1323	132.4	-4.30046E-001	-6.29848E-008	0.00000E+000	-4.30000E-001	3.77035E-005	6	..........a	-327.65
	1324	132.5	-4.40031E-001	-6.36302E-008	0.00000E+000	-4.40000E-001	4.19035E-005	6	..........a	-327.65
	1325	132.6	-4.50045E-001	-6.42791E-008	0.00000E+000	-4.50000E-001	4.33368E-005	6	..........a	-327.65
	1326	132.7	-4.60044E-001	-6.49022E-008	0.00000E+000	-4.60000E-001	4.23035E-005	6	..........a	-327.65
	1327	132.8	-4.70035E-001	-6.55488E-008	0.00000E+000	-4.70000E-001	4.37369E-005	6	..........a	-327.65
	1328	132.9	-4.80022E-001	-6.61414E-008	0.00000E+000	-4.80000E-001	4.74368E-005	6	..........a	-327.65
	1329	133	-4.90062E-001	-6.67472E-008	0.00000E+000	-4.90000E-001	4.43035E-005	6	..........a	-327.65
	1330	133.1	-5.00044E-001	-6.73400E-008	0.00000E+000	-5.00000E-001	4.31035E-005	6	..........a	-327.65
	1331	133.2	-5.10076E-001	-6.80021E-008	0.00000E+000	-5.10000E-001	4.50035E-005	6	..........a	-327.65
	1332	133.3	-5.20013E-001	-6.86579E-008	0.00000E+000	-5.20000E-001	4.13702E-005	6	..........a	-327.65
	1333	133.4	-5.30033E-001	-6.94428E-008	0.00000E+000	-5.30000E-001	4.20702E-005	6	..........a	-327.65
	1334	133.5	-5.40032E-001	-7.03264E-008	0.00000E+000	-5.40000E-001	4.33368E-005	6	..........a	-327.65
	1335	133.6	-5.50080E-001	-7.11152E-008	0.00000E+000	-5.50000E-001	4.32035E-005	6	..........a	-327.65
	1336	133.7	-5.60035E-001	-7.21809E-008	0.00000E+000	-5.60000E-001	4.75369E-005	6	..........a	-327.65
	1337	133.8	-5.70038E-001	-7.32518E-008	0.00000E+000	-5.70000E-001	4.61702E-005	6	..........a	-327.65
	1338	133.9	-5.80010E-001	-7.44212E-008	0.00000E+000	-5.80000E-001	3.72702E-005	6	..........a	-327.65
	1339	134	-5.90068E-001	-7.57967E-008	0.00000E+000	-5.90000E-001	4.33368E-005	6	..........a	-327.65
	1340	134.1	-6.00073E-001	-7.72446E-008	0.00000E+000	-6.00000E-001	1.13540E-003	6	..........a	-327.65
CURVE6	TABLE
	Pt	T	Vf	Im	Vu	Sig	Ach	IERange	Over	Temp
	#	s	V vs. Ref.	A	V	V	V	#	bits	deg C
	1341	134.2	-5.90112E-001	-4.62548E-008	0.00000E+000	-5.90000E-001	4.68035E-005	6	..........a	-327.65
	1342	134.3	-5.80057E-001	-3.86271E-008	0.00000E+000	-5.80000E-001	4.70035E-005	6	..........a	-327.65
	1343	134.4	-5.70086E-001	-3.35326E-008	0.00000E+000	-5.70000E-001	4.69368E-005	6	..........a	-327.65
	1344	134.5	-5.60086E-001	-2.97420E-008	0.00000E+000	-5.60000E-001	4.32702E-005	6	..........a	-327.65
	1345	134.6	-5.50140E-001	-2.67829E-008	0.00000E+000	-5.50000E-001	3.37702E-005	6	..........a	-327.65
	1346	134.7	-5.40079E-001	-2.43532E-008	0.00000E+000	-5.40000E-001	3.64368E-005	6	..........a	-327.65
	1347	134.8	-5.30083E-001	-2.21981E-008	0.00000E+000	-5.30000E-001	3.38368E-005	6	..........a	-327.65
	1348	134.9	-5.20072E-001	-2.02019E-008	0.00000E+000	-5.20000E-001	3.13035E-005	6	..........a	-327.65
	1349	135	-5.10129E-001	-1.83927E-008	0.00000E+000	-5.10000E-001	3.00368E-005	6	..........a	-327.65
	1350	135.1	-5.00088E-001	-1.66069E-008	0.00000E+000	-5.00000E-001	2.90368E-005	6	..........a	-327.65
	1351	135.2	-4.90122E-001	-1.48469E-008	0.00000E+000	-4.90000E-001	3.03035E-005	6	..........a	-327.65
	1352	135.3	-4.80087E-001	-1.30670E-008	0.00000E+000	-4.80000E-001	3.47368E-005	6	..........a	-327.65
	1353	135.4	-4.70112E-001	-1.12518E-008	0.00000E+000	-4.70000E-001	3.64035E-005	6	..........a	-327.65
	1354	135.5	-4.60099E-001	-9.43329E-009	0.00000E+000	-4.60000E-001	3.82035E-005	6	..........a	-327.65
	1355	135.6	-4.50100E-001	-7.58235E-009	0.00000E+000	-4.50000E-001	3.81368E-005	6	..........a	-327.65
	1356	135.7	-4.40095E-001	-5.72930E-009	0.00000E+000	-4.40000E-001	4.04035E-005	6	..........a	-327.65
	1357	135.8	-4.30097E-001	-3.86079E-009	0.00000E+000	-4.30000E-001	3.77368E-005	6	..........a	-327.65
	1358	135.9	-4.20097E-001	-2.06219E-009	0.00000E+000	-4.20000E-001	3.36368E-005	6	..........a	-327.65
	1359	136	-4.10111E-001	-2.45958E-010	0.00000E+000	-4.10000E-001	3.87702E-005	6	..........a	-327.65
	1360	136.1	-4.00022E-001	1.43144E-009	0.00000E+000	-4.00000E-001	4.16702E-005	6	..........a	-327.65
	1361	136.2	-3.90060E-001	3.00076E-009	0.00000E+000	-3.90000E-001	3.90368E-005	6	..........a	-327.65
	1362	136.3	-3.80003E-001	4.43252E-009	0.00000E+000	-3.80000E-001	3.80702E-005	6	..........a	-327.65
	1363	136.4	-3.70087E-001	5.73957E-009	0.00000E+000	-3.70000E-001	4.09369E-005	6	..........a	-327.65
	1364	136.5	-3.60014E-001	6.87980E-009	0.00000E+000	-3.60000E-001	4.16702E-005	6	..........a	-327.65
	1365	136.6	-3.50026E-001	7.85286E-009	0.00000E+000	-3.50000E-001	3.49035E-005	6	..........a	-327.65
	1366	136.7	-3.40021E-001	8.72428E-009	0.00000E+000	-3.40000E-001	3.65035E-005	6	..........a	-327.65
	1367	136.8	-3.30035E-001	9.49971E-009	0.00000E+000	-3.30000E-001	3.55035E-005	6	..........a	-327.65
	1368	136.9	-3.20000E-001	1.01865E-008	0.00000E+000	-3.20000E-001	3.11368E-005	6	..........a	-327.65
	1369	137	-3.10040E-001	1.07890E-008	0.00000E+000	-3.10000E-001	3.80702E-005	6	..........a	-327.65
	1370	137.1	-3.00007E-001	1.14201E-008	0.00000E+000	-3.00000E-001	4.07035E-005	6	..........a	-327.65
	1371	137.2	-2.90031E-001	1.20176E-008	0.00000E+000	-2.90000E-001	3.74702E-005	6	..........a	-327.65
	1372	137.3	-2.80025E-001	1.26308E-008	0.00000E+000	-2.80000E-001	3.33702E-005	6	..........a	-327.65
	1373	137.4	-2.70002E-001	1.32210E-008	0.00000E+000	-2.70000E-001	3.35368E-005	6	..........a	-327.65
	1374	137.5	-2.59984E-001	1.38280E-008	0.00000E+000	-2.60000E-001	3.19035E-005	6	..........a	-327.65
	1375	137.6	-2.50032E-001	1.44639E-008	0.00000E+000	-2.50000E-001	3.45702E-005	6	..........a	-327.65
	1376	137.7	-2.40011E-001	1.50762E-008	0.00000E+000	-2.40000E-001	3.83702E-005	6	..........a	-327.65
	1377	137.8	-2.30047E-001	1.57557E-008	0.00000E+000	-2.30000E-001	3.25035E-005	6	..........a	-327.65
	1378	137.9	-2.19981E-001	1.64254E-008	0.00000E+000	-2.20000E-001	2.83702E-005	6	..........a	-327.65
	1379	138	-2.10035E-001	1.70940E-008	0.00000E+000	-2.10000E-001	2.84035E-005	6	..........a	-327.65
	1380	138.1	-2.00021E-001	1.77496E-008	0.00000E+000	-2.00000E-001	2.70702E-005	6	..........a	-327.65
	1381	138.2	-1.90080E-001	1.84255E-008	0.00000E+000	-1.90000E-001	2.98035E-005	6	..........a	-327.65
	1382	138.3	-1.79995E-001	1.90920E-008	0.00000E+000	-1.80000E-001	3.24702E-005	6	..........a	-327.65
	1383	138.4	-1.70002E-001	1.97464E-008	0.00000E+000	-1.70000E-001	2.96702E-005	6	..........a	-327.65
	1384	138.5	-1.59982E-001	2.04351E-008	0.00000E+000	-1.60000E-001	2.60035E-005	6	..........a	-327.65
	1385	138.6	-1.50029E-001	2.10769E-008	0.00000E+000	-1.50000E-001	2.63368E-005	6	..........a	-327.65
	1386	138.7	-1.40035E-001	2.17300E-008	0.00000E+000	-1.40000E-001	2.56369E-005	6	..........a	-327.65
	1387	138.8	-1.30042E-001	2.24014E-008	0.00000E+000	-1.30000E-001	2.67035E-005	6	..........a	-327.65
	1388	138.9	-1.19998E-001	2.30586E-008	0.00000E+000	-1.20000E-001	2.74702E-005	6	..........a	-327.65
	1389	139	-1.10029E-001	2.37099E-008	0.00000E+000	-1.10000E-001	2.57368E-005	6	..........a	-327.65
	1390	139.1	-1.00019E-001	2.43629E-008	0.00000E+000	-1.00000E-001	2.46035E-005	6	..........a	-327.65
	1391	139.2	-9.00224E-002	2.50425E-008	0.00000E+000	-9.00000E-002	2.56035E-005	6	..........a	-327.65
	1392	139.3	-8.00217E-002	2.57357E-008	0.00000E+000	-8.00000E-002	3.42702E-005	6	..........a	-327.65
	1393	139.4	-7.00125E-002	2.64493E-008	0.00000E+000	-7.00000E-002	2.76368E-005	6	..........a	-327.65
	1394	139.5	-6.00221E-002	2.71444E-008	0.00000E+000	-6.00000E-002	2.63368E-005	6	..........a	-327.65
	1395	139.6	-5.00551E-002	2.78863E-008	0.00000E+000	-5.00000E-002	2.32035E-005	6	..........a	-327.65
	1396	139.7	-4.00172E-002	2.86475E-008	0.00000E+000	-4.00000E-002	2.34368E-005	6	..........a	-327.65
	1397	139.8	-3.00526E-002	2.93940E-008	0.00000E+000	-3.00000E-002	2.25702E-005	6	..........a	-327.65
	1398	139.9	-1.99919E-002	3.01302E-008	0.00000E+000	-2.00000E-002	2.02702E-005	6	..........a	-327.65
	1399	140	-1.00465E-002	3.09400E-008	0.00000E+000	-1.00000E-002	2.09035E-005	6	..........a	-327.65
	1400	140.1	6.44042E-005	3.17518E-008	0.00000E+000	7.45058E-009	1.10657E-003	6	..........a	-327.65