File: Figure 1F/data/50M.DTA
EXPLAIN
TAG	CV
TITLE	LABEL	Cyclic Voltammetry	Test &Identifier
DATE	LABEL	8/25/2021	Date
TIME	LABEL	12:47:35	Time
NOTES	NOTES	1	&Notes...

PSTAT	PSTAT	REF600P-40007	Potentiostat
VINIT	POTEN	0.00000E+000	F	Initial &E (V)
VLIMIT1	POTEN	8.00000E-001	F	Scan Limit &1 (V)
VLIMIT2	POTEN	-6.00000E-001	F	Scan Limit &2 (V)
VFINAL	POTEN	0.00000E+000	F	Final &E (V)
SCANRATE	QUANT	9.99998E+001	&Scan Rate (mV/s)
STEPSIZE	QUANT	1.00000E+001	St&ep Size (mV)
CYCLES	IQUANT	5	C&ycles (#)
IMODE	SELECTOR	0	I/E Range &Mode
IRANGE	QUANT	3.00000E-001	&Max Current (mA)
AREA	QUANT	2.87000E-005	Electrode &Area (cm^2)
ELECTRODETYPE	SELECTOR	0	Electrode Type
STRIPPING	TOGGLE	F	Used for Stripping
POLARITY	TOGGLE	F	Signal Polarity
CONDIT	TWOPARAM	F	1.50000E+001	0.00000E+000	Conditionin&g	Time(s)	E(V)
DELAY	TWOPARAM	T	5.00000E+000	0.00000E+000	Init. De&lay	Time(s)	Stab.(mV/s)
EQDELAY	QUANT	5.00000E+000	Equil. &Time (s)
IRCOMP	SELECTOR	0	IRCom&p
PFCOR	QUANT	5.00000E+001	PF Corr. (ohm)
SAMPLINGMODE	SELECTOR	2	Sampling &Mode
OCVCURVE	TABLE	19
	Pt	T	Vf	Vm	Ach	Over	Temp
	#	s	V vs. Ref.	V	V	bits	deg C
	0	0.258333	2.40355E-001	2.40355E-001	1.19093E-003	..........a	-327.65
	1	0.516667	2.40361E-001	2.40714E-001	1.19380E-003	..........a	-327.65
	2	0.775	2.40393E-001	2.40512E-001	1.19047E-003	..........a	-327.65
	3	1.03333	2.40454E-001	2.40592E-001	1.18427E-003	..........a	-327.65
	4	1.29167	2.40528E-001	2.41171E-001	1.19067E-003	..........a	-327.65
	5	1.55	2.40634E-001	2.41495E-001	1.19093E-003	..........a	-327.65
	6	1.80833	2.40821E-001	2.41821E-001	1.19700E-003	..........a	-327.65
	7	2.06667	2.41096E-001	2.41889E-001	1.19733E-003	..........a	-327.65
	8	2.325	2.41406E-001	2.42365E-001	1.19726E-003	..........a	-327.65
	9	2.58333	2.41699E-001	2.42182E-001	1.19760E-003	..........a	-327.65
	10	2.84167	2.41942E-001	2.42203E-001	1.19686E-003	..........a	-327.65
	11	3.1	2.42113E-001	2.42439E-001	1.19773E-003	..........a	-327.65
	12	3.35833	2.42211E-001	2.42019E-001	1.19040E-003	..........a	-327.65
	13	3.61667	2.42242E-001	2.41882E-001	1.18933E-003	..........a	-327.65
	14	3.875	2.42200E-001	2.41819E-001	1.19380E-003	..........a	-327.65
	15	4.13333	2.42093E-001	2.41767E-001	1.18887E-003	..........a	-327.65
	16	4.39167	2.41966E-001	2.41739E-001	1.18847E-003	..........a	-327.65
	17	4.65	2.41861E-001	2.41724E-001	1.19453E-003	..........a	-327.65
	18	4.90833	2.41790E-001	2.41681E-001	1.18940E-003	..........a	-327.65
EOC	QUANT	0.2417904	Open Circuit (V)
PSTATMODEL	IQUANT	7	Pstat Model
PSTATSECTION	LABEL	REF600P-40007	Pstat Section
PSTATSERIALNO	LABEL	40007	Pstat Serial Number
CTRLMODE	IQUANT	1	Control Mode
ELECTROMETER	IQUANT	0	RE=0 or CS=1
IESTAB	IQUANT	2	I/E Stability
CASPEED	IQUANT	4	Control Amp Speed
CONVENTION	IQUANT	1	Current Convention
ICHRANGE	IQUANT	2	Ich Range
ICHRANGEMODE	TOGGLE	F	Ich Auto Range
ICHOFFSETENABLE	TOGGLE	F	Ich Offset Enable
ICHOFFSET	QUANT	0	Ich Offset (V)
ICHFILTER	IQUANT	2	Ich Filter
VCHRANGE	IQUANT	2	Vch Range
VCHRANGEMODE	TOGGLE	F	Vch Auto Range
VCHOFFSETENABLE	TOGGLE	F	Vch Offset Enable
VCHOFFSET	QUANT	0	Vch Offset (V)
VCHFILTER	IQUANT	2	Vch Filter
ACHRANGE	IQUANT	2	Ach Range
ACHOFFSETENABLE	TOGGLE	F	Ach Offset Enable
ACHOFFSET	QUANT	0	Ach Offset (V)
ACHFILTER	IQUANT	1	Ach Filter
IERANGELOWERLIMIT	IQUANT	1	I/E Range Lower Limit
IERANGEMODE	TOGGLE	T	I/E AutoRange
IERANGE	IQUANT	8	I/E Range
POSFEEDENABLE	TOGGLE	F	Positive Feedback IR Comp
POSFEEDRESISTANCE	QUANT	0	Positive Feedback Resistance (ohm)
ACHSELECT	IQUANT	0	Ach Select
SENSECABLEID	IQUANT	7	Sense Cable ID
PWRCABLEID	IQUANT	7	Power Cable ID
DCCALDATE	LABEL	8/25/2021	DC Calibration Date
ACCALDATE	LABEL	8/25/2021	AC Calibration Date
THERMOSELECT	IQUANT	1	Thermo Select
FRAMEWORKVERSION	LABEL	7.8.1	Framework Version
INSTRUMENTVERSION	LABEL	4.40	Instrument Version
CURVE1	TABLE
	Pt	T	Vf	Im	Vu	Sig	Ach	IERange	Over	Temp
	#	s	V vs. Ref.	A	V	V	V	#	bits	deg C
	0	0.1	3.18574E-005	-1.54837E-008	0.00000E+000	7.45058E-009	1.19553E-003	8	..........a	-327.65
	1	0.2	1.00097E-002	-1.03570E-009	0.00000E+000	1.00000E-002	3.83932E-004	7	......s...a	-327.65
	2	0.3	2.00170E-002	5.02086E-009	0.00000E+000	2.00000E-002	1.19057E-003	6	......s...a	-327.65
	3	0.4	3.00063E-002	7.07497E-009	0.00000E+000	3.00000E-002	1.19080E-003	6	..........a	-327.65
	4	0.5	3.99749E-002	8.48231E-009	0.00000E+000	4.00000E-002	9.43652E-005	6	..........a	-327.65
	5	0.6	5.00011E-002	9.76206E-009	0.00000E+000	5.00000E-002	1.00565E-004	6	..........a	-327.65
	6	0.7	6.00035E-002	1.10864E-008	0.00000E+000	6.00000E-002	9.58318E-005	6	..........a	-327.65
	7	0.8	7.00161E-002	1.25301E-008	0.00000E+000	7.00000E-002	9.33652E-005	6	..........a	-327.65
	8	0.9	7.99979E-002	1.33255E-008	0.00000E+000	8.00000E-002	9.66985E-005	6	..........a	-327.65
	9	1	8.99924E-002	1.46027E-008	0.00000E+000	9.00000E-002	9.33652E-005	6	..........a	-327.65
	10	1.1	1.00001E-001	1.58223E-008	0.00000E+000	1.00000E-001	8.66652E-005	6	..........a	-327.65
	11	1.2	1.09999E-001	1.69407E-008	0.00000E+000	1.10000E-001	8.86985E-005	6	..........a	-327.65
	12	1.3	1.19987E-001	1.81071E-008	0.00000E+000	1.20000E-001	8.79318E-005	6	..........a	-327.65
	13	1.4	1.29986E-001	1.92081E-008	0.00000E+000	1.30000E-001	9.19985E-005	6	..........a	-327.65
	14	1.5	1.40017E-001	2.03838E-008	0.00000E+000	1.40000E-001	8.90318E-005	6	..........a	-327.65
	15	1.6	1.50017E-001	2.13010E-008	0.00000E+000	1.50000E-001	9.41652E-005	6	..........a	-327.65
	16	1.7	1.59987E-001	2.22869E-008	0.00000E+000	1.60000E-001	8.79985E-005	6	..........a	-327.65
	17	1.8	1.70015E-001	2.33550E-008	0.00000E+000	1.70000E-001	8.87985E-005	6	..........a	-327.65
	18	1.9	1.79996E-001	2.43365E-008	0.00000E+000	1.80000E-001	8.91985E-005	6	..........a	-327.65
	19	2	1.90015E-001	2.52277E-008	0.00000E+000	1.90000E-001	8.77318E-005	6	..........a	-327.65
	20	2.1	1.99988E-001	2.61730E-008	0.00000E+000	2.00000E-001	9.25652E-005	6	..........a	-327.65
	21	2.2	2.09986E-001	2.68431E-008	0.00000E+000	2.10000E-001	9.42318E-005	6	..........a	-327.65
	22	2.3	2.19983E-001	2.71973E-008	0.00000E+000	2.20000E-001	9.02985E-005	6	..........a	-327.65
	23	2.4	2.30004E-001	2.80608E-008	0.00000E+000	2.30000E-001	9.50985E-005	6	..........a	-327.65
	24	2.5	2.40002E-001	2.85157E-008	0.00000E+000	2.40000E-001	8.95318E-005	6	..........a	-327.65
	25	2.6	2.50004E-001	2.91676E-008	0.00000E+000	2.50000E-001	8.90652E-005	6	..........a	-327.65
	26	2.7	2.59991E-001	2.96258E-008	0.00000E+000	2.60000E-001	9.10985E-005	6	..........a	-327.65
	27	2.8	2.69977E-001	2.98167E-008	0.00000E+000	2.70000E-001	8.79318E-005	6	..........a	-327.65
	28	2.9	2.79986E-001	3.01566E-008	0.00000E+000	2.80000E-001	8.38318E-005	6	..........a	-327.65
	29	3	2.90008E-001	3.03294E-008	0.00000E+000	2.90000E-001	8.71985E-005	6	..........a	-327.65
	30	3.1	3.00008E-001	3.01740E-008	0.00000E+000	3.00000E-001	8.94318E-005	6	..........a	-327.65
	31	3.2	3.10000E-001	3.05869E-008	0.00000E+000	3.10000E-001	8.32652E-005	6	..........a	-327.65
	32	3.3	3.19992E-001	3.02040E-008	0.00000E+000	3.20000E-001	8.59985E-005	6	..........a	-327.65
	33	3.4	3.29985E-001	3.11801E-008	0.00000E+000	3.30000E-001	9.00652E-005	6	..........a	-327.65
	34	3.5	3.40013E-001	3.06802E-008	0.00000E+000	3.40000E-001	9.22985E-005	6	..........a	-327.65
	35	3.6	3.50068E-001	3.06705E-008	0.00000E+000	3.50000E-001	8.87318E-005	6	..........a	-327.65
	36	3.7	3.59971E-001	3.05130E-008	0.00000E+000	3.60000E-001	9.32318E-005	6	..........a	-327.65
	37	3.8	3.69992E-001	3.07512E-008	0.00000E+000	3.70000E-001	9.33985E-005	6	..........a	-327.65
	38	3.9	3.79983E-001	3.06892E-008	0.00000E+000	3.80000E-001	9.11652E-005	6	..........a	-327.65
	39	4	3.90021E-001	3.03238E-008	0.00000E+000	3.90000E-001	8.98985E-005	6	..........a	-327.65
	40	4.1	4.00003E-001	3.06904E-008	0.00000E+000	4.00000E-001	8.97652E-005	6	..........a	-327.65
	41	4.2	4.10028E-001	3.07057E-008	0.00000E+000	4.10000E-001	8.62985E-005	6	..........a	-327.65
	42	4.3	4.20071E-001	3.07500E-008	0.00000E+000	4.20000E-001	8.29652E-005	6	..........a	-327.65
	43	4.4	4.30040E-001	3.07968E-008	0.00000E+000	4.30000E-001	8.70985E-005	6	..........a	-327.65
	44	4.5	4.40053E-001	3.10917E-008	0.00000E+000	4.40000E-001	8.87318E-005	6	..........a	-327.65
	45	4.6	4.50022E-001	3.09111E-008	0.00000E+000	4.50000E-001	8.75652E-005	6	..........a	-327.65
	46	4.7	4.60078E-001	3.13851E-008	0.00000E+000	4.60000E-001	8.47652E-005	6	..........a	-327.65
	47	4.8	4.70073E-001	3.15167E-008	0.00000E+000	4.70000E-001	8.84318E-005	6	..........a	-327.65
	48	4.9	4.80059E-001	3.20486E-008	0.00000E+000	4.80000E-001	8.68652E-005	6	..........a	-327.65
	49	5	4.90057E-001	3.22837E-008	0.00000E+000	4.90000E-001	8.86318E-005	6	..........a	-327.65
	50	5.1	5.00067E-001	3.27545E-008	0.00000E+000	5.00000E-001	8.81985E-005	6	..........a	-327.65
	51	5.2	5.10056E-001	3.34110E-008	0.00000E+000	5.10000E-001	9.60318E-005	6	..........a	-327.65
	52	5.3	5.20049E-001	3.38764E-008	0.00000E+000	5.20000E-001	9.87985E-005	6	..........a	-327.65
	53	5.4	5.30035E-001	3.42454E-008	0.00000E+000	5.30000E-001	9.59985E-005	6	..........a	-327.65
	54	5.5	5.40061E-001	3.48986E-008	0.00000E+000	5.40000E-001	1.00465E-004	6	..........a	-327.65
	55	5.6	5.50086E-001	3.60737E-008	0.00000E+000	5.50000E-001	9.63652E-005	6	..........a	-327.65
	56	5.7	5.60068E-001	3.62206E-008	0.00000E+000	5.60000E-001	9.34985E-005	6	..........a	-327.65
	57	5.8	5.70051E-001	3.72470E-008	0.00000E+000	5.70000E-001	9.54318E-005	6	..........a	-327.65
	58	5.9	5.80064E-001	3.73725E-008	0.00000E+000	5.80000E-001	9.06318E-005	6	..........a	-327.65
	59	6	5.90047E-001	3.73198E-008	0.00000E+000	5.90000E-001	9.48652E-005	6	..........a	-327.65
	60	6.1	6.00072E-001	3.84764E-008	0.00000E+000	6.00000E-001	9.86651E-005	6	..........a	-327.65
	61	6.2	6.10043E-001	3.89647E-008	0.00000E+000	6.10000E-001	1.00165E-004	6	..........a	-327.65
	62	6.3	6.20063E-001	4.20245E-008	0.00000E+000	6.20000E-001	9.71318E-005	6	..........a	-327.65
	63	6.4	6.30064E-001	4.32080E-008	0.00000E+000	6.30000E-001	9.33318E-005	6	..........a	-327.65
	64	6.5	6.40047E-001	4.40304E-008	0.00000E+000	6.40000E-001	9.97318E-005	6	..........a	-327.65
	65	6.6	6.50074E-001	4.25926E-008	0.00000E+000	6.50000E-001	9.86318E-005	6	..........a	-327.65
	66	6.7	6.60104E-001	4.28664E-008	0.00000E+000	6.60000E-001	9.88985E-005	6	..........a	-327.65
	67	6.8	6.70062E-001	4.21468E-008	0.00000E+000	6.70000E-001	9.89652E-005	6	..........a	-327.65
	68	6.9	6.80020E-001	4.43151E-008	0.00000E+000	6.80000E-001	1.03732E-004	6	..........a	-327.65
	69	7	6.90046E-001	4.51945E-008	0.00000E+000	6.90000E-001	9.89985E-005	6	..........a	-327.65
	70	7.1	7.00087E-001	4.63108E-008	0.00000E+000	7.00000E-001	9.65652E-005	6	..........a	-327.65
	71	7.2	7.10104E-001	4.61052E-008	0.00000E+000	7.10000E-001	9.68652E-005	6	..........a	-327.65
	72	7.3	7.20044E-001	4.61995E-008	0.00000E+000	7.20000E-001	9.54652E-005	6	..........a	-327.65
	73	7.4	7.30026E-001	4.77565E-008	0.00000E+000	7.30000E-001	9.61985E-005	6	..........a	-327.65
	74	7.5	7.40064E-001	4.91438E-008	0.00000E+000	7.40000E-001	9.47318E-005	6	..........a	-327.65
	75	7.6	7.50074E-001	5.16781E-008	0.00000E+000	7.50000E-001	1.01499E-004	6	..........a	-327.65
	76	7.7	7.60104E-001	5.25097E-008	0.00000E+000	7.60000E-001	9.79652E-005	6	..........a	-327.65
	77	7.8	7.70032E-001	5.42571E-008	0.00000E+000	7.70000E-001	9.62985E-005	6	..........a	-327.65
	78	7.9	7.80073E-001	5.35055E-008	0.00000E+000	7.80000E-001	1.00132E-004	6	..........a	-327.65
	79	8	7.90073E-001	5.65223E-008	0.00000E+000	7.90000E-001	9.65318E-005	6	..........a	-327.65
	80	8.1	8.00061E-001	5.86876E-008	0.00000E+000	8.00000E-001	9.89985E-005	6	..........a	-327.65
	81	8.2	7.90106E-001	3.07478E-008	0.00000E+000	7.90000E-001	9.56652E-005	6	..........a	-327.65
	82	8.3	7.80109E-001	2.12893E-008	0.00000E+000	7.80000E-001	9.19985E-005	6	..........a	-327.65
	83	8.4	7.70067E-001	1.42489E-008	0.00000E+000	7.70000E-001	8.27652E-005	6	..........a	-327.65
	84	8.5	7.60136E-001	9.41635E-009	0.00000E+000	7.60000E-001	8.53652E-005	6	..........a	-327.65
	85	8.6	7.50110E-001	5.12676E-009	0.00000E+000	7.50000E-001	8.94652E-005	6	..........a	-327.65
	86	8.7	7.40097E-001	1.62513E-009	0.00000E+000	7.40000E-001	9.29985E-005	6	..........a	-327.65
	87	8.8	7.30060E-001	-1.72482E-009	0.00000E+000	7.30000E-001	8.75985E-005	6	..........a	-327.65
	88	8.9	7.20076E-001	-3.93464E-009	0.00000E+000	7.20000E-001	9.01985E-005	6	..........a	-327.65
	89	9	7.10143E-001	-5.79348E-009	0.00000E+000	7.10000E-001	9.21652E-005	6	..........a	-327.65
	90	9.1	7.00117E-001	-7.54070E-009	0.00000E+000	7.00000E-001	9.01318E-005	6	..........a	-327.65
	91	9.2	6.90075E-001	-9.26187E-009	0.00000E+000	6.90000E-001	8.66652E-005	6	..........a	-327.65
	92	9.3	6.80048E-001	-1.10801E-008	0.00000E+000	6.80000E-001	9.25985E-005	6	..........a	-327.65
	93	9.4	6.70095E-001	-1.18683E-008	0.00000E+000	6.70000E-001	9.41318E-005	6	..........a	-327.65
	94	9.5	6.60124E-001	-1.36906E-008	0.00000E+000	6.60000E-001	8.79985E-005	6	..........a	-327.65
	95	9.6	6.50105E-001	-1.44694E-008	0.00000E+000	6.50000E-001	9.05985E-005	6	..........a	-327.65
	96	9.7	6.40074E-001	-1.48901E-008	0.00000E+000	6.40000E-001	9.40652E-005	6	..........a	-327.65
	97	9.8	6.30105E-001	-1.54337E-008	0.00000E+000	6.30000E-001	9.23985E-005	6	..........a	-327.65
	98	9.9	6.20090E-001	-1.54057E-008	0.00000E+000	6.20000E-001	9.04652E-005	6	..........a	-327.65
	99	10	6.10079E-001	-1.65860E-008	0.00000E+000	6.10000E-001	8.99318E-005	6	..........a	-327.65
	100	10.1	6.00107E-001	-1.77766E-008	0.00000E+000	6.00000E-001	9.39985E-005	6	..........a	-327.65
	101	10.2	5.90079E-001	-1.76264E-008	0.00000E+000	5.90000E-001	8.82985E-005	6	..........a	-327.65
	102	10.3	5.80115E-001	-1.86043E-008	0.00000E+000	5.80000E-001	8.61985E-005	6	..........a	-327.65
	103	10.4	5.70086E-001	-1.83569E-008	0.00000E+000	5.70000E-001	9.43985E-005	6	..........a	-327.65
	104	10.5	5.60106E-001	-1.89500E-008	0.00000E+000	5.60000E-001	9.46318E-005	6	..........a	-327.65
	105	10.6	5.50124E-001	-1.92819E-008	0.00000E+000	5.50000E-001	8.93652E-005	6	..........a	-327.65
	106	10.7	5.40088E-001	-1.85510E-008	0.00000E+000	5.40000E-001	9.03652E-005	6	..........a	-327.65
	107	10.8	5.30068E-001	-1.77596E-008	0.00000E+000	5.30000E-001	9.09652E-005	6	..........a	-327.65
	108	10.9	5.20081E-001	-1.83934E-008	0.00000E+000	5.20000E-001	9.66652E-005	6	..........a	-327.65
	109	11	5.10097E-001	-1.99845E-008	0.00000E+000	5.10000E-001	9.49318E-005	6	..........a	-327.65
	110	11.1	5.00083E-001	-2.10349E-008	0.00000E+000	5.00000E-001	9.30985E-005	6	..........a	-327.65
	111	11.2	4.90090E-001	-2.03728E-008	0.00000E+000	4.90000E-001	9.26318E-005	6	..........a	-327.65
	112	11.3	4.80091E-001	-2.10395E-008	0.00000E+000	4.80000E-001	8.74652E-005	6	..........a	-327.65
	113	11.4	4.70113E-001	-2.14081E-008	0.00000E+000	4.70000E-001	9.18318E-005	6	..........a	-327.65
	114	11.5	4.60115E-001	-2.11215E-008	0.00000E+000	4.60000E-001	8.82652E-005	6	..........a	-327.65
	115	11.6	4.50061E-001	-2.12260E-008	0.00000E+000	4.50000E-001	8.79985E-005	6	..........a	-327.65
	116	11.7	4.40087E-001	-2.09624E-008	0.00000E+000	4.40000E-001	9.79652E-005	6	..........a	-327.65
	117	11.8	4.30069E-001	-2.11929E-008	0.00000E+000	4.30000E-001	9.50652E-005	6	..........a	-327.65
	118	11.9	4.20115E-001	-2.16868E-008	0.00000E+000	4.20000E-001	9.18318E-005	6	..........a	-327.65
	119	12	4.10069E-001	-2.19231E-008	0.00000E+000	4.10000E-001	8.70652E-005	6	..........a	-327.65
	120	12.1	4.00033E-001	-2.19454E-008	0.00000E+000	4.00000E-001	9.20652E-005	6	..........a	-327.65
	121	12.2	3.90070E-001	-2.16859E-008	0.00000E+000	3.90000E-001	8.79651E-005	6	..........a	-327.65
	122	12.3	3.80024E-001	-2.21077E-008	0.00000E+000	3.80000E-001	8.93652E-005	6	..........a	-327.65
	123	12.4	3.70035E-001	-2.15882E-008	0.00000E+000	3.70000E-001	8.43985E-005	6	..........a	-327.65
	124	12.5	3.60010E-001	-2.20561E-008	0.00000E+000	3.60000E-001	8.65652E-005	6	..........a	-327.65
	125	12.6	3.50113E-001	-2.18492E-008	0.00000E+000	3.50000E-001	8.75318E-005	6	..........a	-327.65
	126	12.7	3.40055E-001	-2.19782E-008	0.00000E+000	3.40000E-001	8.37985E-005	6	..........a	-327.65
	127	12.8	3.30019E-001	-2.19606E-008	0.00000E+000	3.30000E-001	9.28652E-005	6	..........a	-327.65
	128	12.9	3.20035E-001	-2.18742E-008	0.00000E+000	3.20000E-001	8.61318E-005	6	..........a	-327.65
	129	13	3.10040E-001	-2.20181E-008	0.00000E+000	3.10000E-001	8.30652E-005	6	..........a	-327.65
	130	13.1	3.00042E-001	-2.19765E-008	0.00000E+000	3.00000E-001	8.64652E-005	6	..........a	-327.65
	131	13.2	2.90043E-001	-2.20273E-008	0.00000E+000	2.90000E-001	9.05985E-005	6	..........a	-327.65
	132	13.3	2.80027E-001	-2.23618E-008	0.00000E+000	2.80000E-001	8.63652E-005	6	..........a	-327.65
	133	13.4	2.70017E-001	-2.22974E-008	0.00000E+000	2.70000E-001	8.52652E-005	6	..........a	-327.65
	134	13.5	2.60030E-001	-2.21771E-008	0.00000E+000	2.60000E-001	9.22318E-005	6	..........a	-327.65
	135	13.6	2.50046E-001	-2.23650E-008	0.00000E+000	2.50000E-001	8.95318E-005	6	..........a	-327.65
	136	13.7	2.40042E-001	-2.31166E-008	0.00000E+000	2.40000E-001	7.97652E-005	6	..........a	-327.65
	137	13.8	2.30042E-001	-2.32210E-008	0.00000E+000	2.30000E-001	8.47652E-005	6	..........a	-327.65
	138	13.9	2.20018E-001	-2.31658E-008	0.00000E+000	2.20000E-001	9.39652E-005	6	..........a	-327.65
	139	14	2.10020E-001	-2.32981E-008	0.00000E+000	2.10000E-001	9.32985E-005	6	..........a	-327.65
	140	14.1	2.00028E-001	-2.32347E-008	0.00000E+000	2.00000E-001	8.37652E-005	6	..........a	-327.65
	141	14.2	1.90063E-001	-2.36147E-008	0.00000E+000	1.90000E-001	8.89652E-005	6	..........a	-327.65
	142	14.3	1.80038E-001	-2.42216E-008	0.00000E+000	1.80000E-001	9.21985E-005	6	..........a	-327.65
	143	14.4	1.70069E-001	-2.46617E-008	0.00000E+000	1.70000E-001	8.90652E-005	6	..........a	-327.65
	144	14.5	1.60027E-001	-2.47380E-008	0.00000E+000	1.60000E-001	8.56652E-005	6	..........a	-327.65
	145	14.6	1.50057E-001	-2.50898E-008	0.00000E+000	1.50000E-001	8.75985E-005	6	..........a	-327.65
	146	14.7	1.40060E-001	-2.56200E-008	0.00000E+000	1.40000E-001	9.65985E-005	6	..........a	-327.65
	147	14.8	1.30019E-001	-2.60337E-008	0.00000E+000	1.30000E-001	9.21652E-005	6	..........a	-327.65
	148	14.9	1.20022E-001	-2.64072E-008	0.00000E+000	1.20000E-001	9.11318E-005	6	..........a	-327.65
	149	15	1.10040E-001	-2.66278E-008	0.00000E+000	1.10000E-001	8.80651E-005	6	..........a	-327.65
	150	15.1	1.00048E-001	-2.71627E-008	0.00000E+000	1.00000E-001	8.82985E-005	6	..........a	-327.65
	151	15.2	9.00273E-002	-2.78066E-008	0.00000E+000	9.00000E-002	8.95652E-005	6	..........a	-327.65
	152	15.3	8.00359E-002	-2.81842E-008	0.00000E+000	8.00000E-002	8.75318E-005	6	..........a	-327.65
	153	15.4	7.00498E-002	-2.87904E-008	0.00000E+000	7.00000E-002	8.49985E-005	6	..........a	-327.65
	154	15.5	6.00404E-002	-2.94870E-008	0.00000E+000	6.00000E-002	8.71652E-005	6	..........a	-327.65
	155	15.6	5.00374E-002	-2.97292E-008	0.00000E+000	5.00000E-002	8.74318E-005	6	..........a	-327.65
	156	15.7	4.00157E-002	-3.00903E-008	0.00000E+000	4.00000E-002	8.58318E-005	6	..........a	-327.65
	157	15.8	3.00466E-002	-3.05061E-008	0.00000E+000	3.00000E-002	8.60652E-005	6	..........a	-327.65
	158	15.9	2.00541E-002	-3.07743E-008	0.00000E+000	2.00000E-002	8.66652E-005	6	..........a	-327.65
	159	16	1.00465E-002	-3.14748E-008	0.00000E+000	1.00000E-002	8.24652E-005	6	..........a	-327.65
	160	16.1	-7.11841E-005	-3.13771E-008	0.00000E+000	7.45058E-009	8.54318E-005	6	..........a	-327.65
	161	16.2	-1.00540E-002	-3.14168E-008	0.00000E+000	-1.00000E-002	8.48985E-005	6	..........a	-327.65
	162	16.3	-2.00648E-002	-3.19005E-008	0.00000E+000	-2.00000E-002	8.86318E-005	6	..........a	-327.65
	163	16.4	-3.00594E-002	-3.07606E-008	0.00000E+000	-3.00000E-002	9.28318E-005	6	..........a	-327.65
	164	16.5	-4.00777E-002	-3.25257E-008	0.00000E+000	-4.00000E-002	8.59318E-005	6	..........a	-327.65
	165	16.6	-5.00648E-002	-3.52029E-008	0.00000E+000	-5.00000E-002	8.47318E-005	6	..........a	-327.65
	166	16.7	-6.00754E-002	-3.58210E-008	0.00000E+000	-6.00000E-002	8.73985E-005	6	..........a	-327.65
	167	16.8	-7.00586E-002	-3.40675E-008	0.00000E+000	-7.00000E-002	8.90652E-005	6	..........a	-327.65
	168	16.9	-8.00885E-002	-3.36691E-008	0.00000E+000	-8.00000E-002	8.93318E-005	6	..........a	-327.65
	169	17	-9.00566E-002	-3.52741E-008	0.00000E+000	-9.00000E-002	8.64652E-005	6	..........a	-327.65
	170	17.1	-1.00093E-001	-3.58960E-008	0.00000E+000	-1.00000E-001	9.17318E-005	6	..........a	-327.65
	171	17.2	-1.09994E-001	-3.77489E-008	0.00000E+000	-1.10000E-001	9.33318E-005	6	..........a	-327.65
	172	17.3	-1.20058E-001	-3.70601E-008	0.00000E+000	-1.20000E-001	9.30318E-005	6	..........a	-327.65
	173	17.4	-1.30026E-001	-3.81106E-008	0.00000E+000	-1.30000E-001	9.72652E-005	6	..........a	-327.65
	174	17.5	-1.40092E-001	-3.82123E-008	0.00000E+000	-1.40000E-001	9.27318E-005	6	..........a	-327.65
	175	17.6	-1.50059E-001	-3.81098E-008	0.00000E+000	-1.50000E-001	9.54318E-005	6	..........a	-327.65
	176	17.7	-1.60040E-001	-3.97479E-008	0.00000E+000	-1.60000E-001	9.58985E-005	6	..........a	-327.65
	177	17.8	-1.70017E-001	-4.00402E-008	0.00000E+000	-1.70000E-001	9.07985E-005	6	..........a	-327.65
	178	17.9	-1.80076E-001	-4.02982E-008	0.00000E+000	-1.80000E-001	9.52318E-005	6	..........a	-327.65
	179	18	-1.90060E-001	-4.04565E-008	0.00000E+000	-1.90000E-001	9.93652E-005	6	..........a	-327.65
	180	18.1	-2.00068E-001	-4.04353E-008	0.00000E+000	-2.00000E-001	9.66318E-005	6	..........a	-327.65
	181	18.2	-2.10017E-001	-4.00379E-008	0.00000E+000	-2.10000E-001	9.59985E-005	6	..........a	-327.65
	182	18.3	-2.20046E-001	-3.86131E-008	0.00000E+000	-2.20000E-001	9.34652E-005	6	..........a	-327.65
	183	18.4	-2.30045E-001	-3.84111E-008	0.00000E+000	-2.30000E-001	9.50318E-005	6	..........a	-327.65
	184	18.5	-2.40061E-001	-3.82202E-008	0.00000E+000	-2.40000E-001	9.65318E-005	6	..........a	-327.65
	185	18.6	-2.50040E-001	-3.87930E-008	0.00000E+000	-2.50000E-001	9.39652E-005	6	..........a	-327.65
	186	18.7	-2.60056E-001	-4.16887E-008	0.00000E+000	-2.60000E-001	9.62985E-005	6	..........a	-327.65
	187	18.8	-2.70033E-001	-4.14953E-008	0.00000E+000	-2.70000E-001	1.02332E-004	6	..........a	-327.65
	188	18.9	-2.80071E-001	-4.26245E-008	0.00000E+000	-2.80000E-001	1.01032E-004	6	..........a	-327.65
	189	19	-2.90012E-001	-4.33107E-008	0.00000E+000	-2.90000E-001	9.57652E-005	6	..........a	-327.65
	190	19.1	-3.00063E-001	-4.42695E-008	0.00000E+000	-3.00000E-001	1.01598E-004	6	..........a	-327.65
	191	19.2	-3.10028E-001	-4.50156E-008	0.00000E+000	-3.10000E-001	1.02932E-004	6	..........a	-327.65
	192	19.3	-3.20053E-001	-4.67650E-008	0.00000E+000	-3.20000E-001	1.03398E-004	6	..........a	-327.65
	193	19.4	-3.30036E-001	-4.81092E-008	0.00000E+000	-3.30000E-001	1.04532E-004	6	..........a	-327.65
	194	19.5	-3.40069E-001	-4.94516E-008	0.00000E+000	-3.40000E-001	1.08298E-004	6	..........a	-327.65
	195	19.6	-3.50054E-001	-5.12366E-008	0.00000E+000	-3.50000E-001	1.12065E-004	6	..........a	-327.65
	196	19.7	-3.60058E-001	-5.36272E-008	0.00000E+000	-3.60000E-001	1.03798E-004	6	..........a	-327.65
	197	19.8	-3.70048E-001	-5.39689E-008	0.00000E+000	-3.70000E-001	1.06932E-004	6	..........a	-327.65
	198	19.9	-3.80067E-001	-5.62369E-008	0.00000E+000	-3.80000E-001	1.09698E-004	6	..........a	-327.65
	199	20	-3.90042E-001	-5.78611E-008	0.00000E+000	-3.90000E-001	1.03165E-004	6	..........a	-327.65
	200	20.1	-4.00076E-001	-5.91832E-008	0.00000E+000	-4.00000E-001	1.03299E-004	6	..........a	-327.65
	201	20.2	-4.10110E-001	-6.12318E-008	0.00000E+000	-4.10000E-001	1.08932E-004	6	..........a	-327.65
	202	20.3	-4.20165E-001	-6.26206E-008	0.00000E+000	-4.20000E-001	1.09532E-004	6	..........a	-327.65
	203	20.4	-4.30119E-001	-6.39832E-008	0.00000E+000	-4.30000E-001	1.09732E-004	6	..........a	-327.65
	204	20.5	-4.40151E-001	-6.54201E-008	0.00000E+000	-4.40000E-001	1.07632E-004	6	..........a	-327.65
	205	20.6	-4.50131E-001	-6.67714E-008	0.00000E+000	-4.50000E-001	1.08899E-004	6	..........a	-327.65
	206	20.7	-4.60173E-001	-6.84296E-008	0.00000E+000	-4.60000E-001	1.05099E-004	6	..........a	-327.65
	207	20.8	-4.70092E-001	-7.01582E-008	0.00000E+000	-4.70000E-001	1.01699E-004	6	..........a	-327.65
	208	20.9	-4.80147E-001	-7.16476E-008	0.00000E+000	-4.80000E-001	1.00898E-004	6	..........a	-327.65
	209	21	-4.90128E-001	-7.33433E-008	0.00000E+000	-4.90000E-001	1.03932E-004	6	..........a	-327.65
	210	21.1	-5.00154E-001	-7.40610E-008	0.00000E+000	-5.00000E-001	1.03499E-004	6	..........a	-327.65
	211	21.2	-5.10153E-001	-7.58123E-008	0.00000E+000	-5.10000E-001	1.04732E-004	6	..........a	-327.65
	212	21.3	-5.20111E-001	-7.95007E-008	0.00000E+000	-5.20000E-001	9.79652E-005	6	..........a	-327.65
	213	21.4	-5.30109E-001	-8.03484E-008	0.00000E+000	-5.30000E-001	9.36985E-005	6	..........a	-327.65
	214	21.5	-5.40158E-001	-7.92153E-008	0.00000E+000	-5.40000E-001	9.46318E-005	6	..........a	-327.65
	215	21.6	-5.50121E-001	-7.88365E-008	0.00000E+000	-5.50000E-001	9.54652E-005	6	..........a	-327.65
	216	21.7	-5.60161E-001	-8.13574E-008	0.00000E+000	-5.60000E-001	9.58985E-005	6	..........a	-327.65
	217	21.8	-5.70109E-001	-8.14176E-008	0.00000E+000	-5.70000E-001	8.93985E-005	6	..........a	-327.65
	218	21.9	-5.80132E-001	-8.23916E-008	0.00000E+000	-5.80000E-001	9.39985E-005	6	..........a	-327.65
	219	22	-5.90143E-001	-8.39185E-008	0.00000E+000	-5.90000E-001	9.39985E-005	6	..........a	-327.65
	220	22.1	-6.00197E-001	-8.47463E-008	0.00000E+000	-6.00000E-001	9.22652E-005	6	..........a	-327.65
CURVE2	TABLE
	Pt	T	Vf	Im	Vu	Sig	Ach	IERange	Over	Temp
	#	s	V vs. Ref.	A	V	V	V	#	bits	deg C
	221	22.2	-5.90172E-001	-5.92118E-008	0.00000E+000	-5.90000E-001	1.07532E-004	6	..........a	-327.65
	222	22.3	-5.80174E-001	-5.03772E-008	0.00000E+000	-5.80000E-001	1.07299E-004	6	..........a	-327.65
	223	22.4	-5.70139E-001	-4.46051E-008	0.00000E+000	-5.70000E-001	1.01932E-004	6	..........a	-327.65
	224	22.5	-5.60188E-001	-4.07132E-008	0.00000E+000	-5.60000E-001	1.03665E-004	6	..........a	-327.65
	225	22.6	-5.50153E-001	-3.63900E-008	0.00000E+000	-5.50000E-001	1.00432E-004	6	..........a	-327.65
	226	22.7	-5.40195E-001	-3.30241E-008	0.00000E+000	-5.40000E-001	1.05998E-004	6	..........a	-327.65
	227	22.8	-5.30159E-001	-2.98987E-008	0.00000E+000	-5.30000E-001	1.02065E-004	6	..........a	-327.65
	228	22.9	-5.20143E-001	-2.80615E-008	0.00000E+000	-5.20000E-001	1.00865E-004	6	..........a	-327.65
	229	23	-5.10204E-001	-2.73274E-008	0.00000E+000	-5.10000E-001	1.01098E-004	6	..........a	-327.65
	230	23.1	-5.00207E-001	-2.49444E-008	0.00000E+000	-5.00000E-001	9.12652E-005	6	..........a	-327.65
	231	23.2	-4.90184E-001	-2.26925E-008	0.00000E+000	-4.90000E-001	8.98318E-005	6	..........a	-327.65
	232	23.3	-4.80200E-001	-2.11791E-008	0.00000E+000	-4.80000E-001	9.11318E-005	6	..........a	-327.65
	233	23.4	-4.70153E-001	-1.90634E-008	0.00000E+000	-4.70000E-001	9.54652E-005	6	..........a	-327.65
	234	23.5	-4.60239E-001	-1.83027E-008	0.00000E+000	-4.60000E-001	9.04652E-005	6	..........a	-327.65
	235	23.6	-4.50186E-001	-1.69819E-008	0.00000E+000	-4.50000E-001	9.68985E-005	6	..........a	-327.65
	236	23.7	-4.40225E-001	-1.57875E-008	0.00000E+000	-4.40000E-001	9.71985E-005	6	..........a	-327.65
	237	23.8	-4.30183E-001	-1.46841E-008	0.00000E+000	-4.30000E-001	9.49318E-005	6	..........a	-327.65
	238	23.9	-4.20243E-001	-1.36093E-008	0.00000E+000	-4.20000E-001	9.96985E-005	6	..........a	-327.65
	239	24	-4.10167E-001	-1.24109E-008	0.00000E+000	-4.10000E-001	9.77985E-005	6	..........a	-327.65
	240	24.1	-4.00141E-001	-1.20149E-008	0.00000E+000	-4.00000E-001	9.72318E-005	6	..........a	-327.65
	241	24.2	-3.90119E-001	-1.13427E-008	0.00000E+000	-3.90000E-001	1.01632E-004	6	..........a	-327.65
	242	24.3	-3.80139E-001	-1.05680E-008	0.00000E+000	-3.80000E-001	9.54318E-005	6	..........a	-327.65
	243	24.4	-3.70121E-001	-9.70797E-009	0.00000E+000	-3.70000E-001	9.78985E-005	6	..........a	-327.65
	244	24.5	-3.60134E-001	-8.99336E-009	0.00000E+000	-3.60000E-001	9.71318E-005	6	..........a	-327.65
	245	24.6	-3.50130E-001	-8.04104E-009	0.00000E+000	-3.50000E-001	9.82652E-005	6	..........a	-327.65
	246	24.7	-3.40156E-001	-7.37118E-009	0.00000E+000	-3.40000E-001	1.00698E-004	6	..........a	-327.65
	247	24.8	-3.30106E-001	-6.71312E-009	0.00000E+000	-3.30000E-001	1.04632E-004	6	..........a	-327.65
	248	24.9	-3.20119E-001	-8.13624E-009	0.00000E+000	-3.20000E-001	9.64318E-005	6	..........a	-327.65
	249	25	-3.10101E-001	-5.68138E-009	0.00000E+000	-3.10000E-001	9.73652E-005	6	..........a	-327.65
	250	25.1	-3.00134E-001	-4.75401E-009	0.00000E+000	-3.00000E-001	1.05765E-004	6	..........a	-327.65
	251	25.2	-2.90089E-001	-4.18788E-009	0.00000E+000	-2.90000E-001	1.00098E-004	6	..........a	-327.65
	252	25.3	-2.80134E-001	-3.72704E-009	0.00000E+000	-2.80000E-001	9.92318E-005	6	..........a	-327.65
	253	25.4	-2.70100E-001	-2.55306E-009	0.00000E+000	-2.70000E-001	9.77985E-005	6	..........a	-327.65
	254	25.5	-2.60124E-001	-1.92174E-009	0.00000E+000	-2.60000E-001	1.01699E-004	6	..........a	-327.65
	255	25.6	-2.50099E-001	-1.19747E-009	0.00000E+000	-2.50000E-001	1.00598E-004	6	..........a	-327.65
	256	25.7	-2.40121E-001	-3.43681E-010	0.00000E+000	-2.40000E-001	1.05099E-004	6	..........a	-327.65
	257	25.8	-2.30109E-001	-1.86335E-010	0.00000E+000	-2.30000E-001	1.05099E-004	6	..........a	-327.65
	258	25.9	-2.20109E-001	5.45580E-010	0.00000E+000	-2.20000E-001	9.86985E-005	6	..........a	-327.65
	259	26	-2.10079E-001	2.06403E-009	0.00000E+000	-2.10000E-001	9.70652E-005	6	..........a	-327.65
	260	26.1	-2.00133E-001	2.94122E-009	0.00000E+000	-2.00000E-001	9.93652E-005	6	..........a	-327.65
	261	26.2	-1.90126E-001	3.65426E-009	0.00000E+000	-1.90000E-001	1.00365E-004	6	..........a	-327.65
	262	26.3	-1.80131E-001	4.53965E-009	0.00000E+000	-1.80000E-001	1.01132E-004	6	..........a	-327.65
	263	26.4	-1.70076E-001	5.48530E-009	0.00000E+000	-1.70000E-001	1.02365E-004	6	..........a	-327.65
	264	26.5	-1.60103E-001	6.59612E-009	0.00000E+000	-1.60000E-001	9.81985E-005	6	..........a	-327.65
	265	26.6	-1.50116E-001	7.43470E-009	0.00000E+000	-1.50000E-001	9.81652E-005	6	..........a	-327.65
	266	26.7	-1.40157E-001	8.30386E-009	0.00000E+000	-1.40000E-001	9.88985E-005	6	..........a	-327.65
	267	26.8	-1.30078E-001	7.85236E-009	0.00000E+000	-1.30000E-001	1.01332E-004	6	..........a	-327.65
	268	26.9	-1.20109E-001	8.34000E-009	0.00000E+000	-1.20000E-001	9.96652E-005	6	..........a	-327.65
	269	27	-1.10039E-001	9.11670E-009	0.00000E+000	-1.10000E-001	9.73652E-005	6	..........a	-327.65
	270	27.1	-1.00144E-001	9.92650E-009	0.00000E+000	-1.00000E-001	9.74652E-005	6	..........a	-327.65
	271	27.2	-9.01047E-002	1.29277E-008	0.00000E+000	-9.00000E-002	9.85318E-005	6	..........a	-327.65
	272	27.3	-8.01336E-002	1.39016E-008	0.00000E+000	-8.00000E-002	9.63985E-005	6	..........a	-327.65
	273	27.4	-7.01061E-002	1.43653E-008	0.00000E+000	-7.00000E-002	9.35652E-005	6	..........a	-327.65
	274	27.5	-6.01295E-002	1.44521E-008	0.00000E+000	-6.00000E-002	9.49985E-005	6	..........a	-327.65
	275	27.6	-5.01085E-002	1.55884E-008	0.00000E+000	-5.00000E-002	8.85652E-005	6	..........a	-327.65
	276	27.7	-4.01196E-002	1.60420E-008	0.00000E+000	-4.00000E-002	9.32652E-005	6	..........a	-327.65
	277	27.8	-3.01075E-002	1.86862E-008	0.00000E+000	-3.00000E-002	9.47985E-005	6	..........a	-327.65
	278	27.9	-2.01141E-002	1.88674E-008	0.00000E+000	-2.00000E-002	1.00232E-004	6	..........a	-327.65
	279	28	-1.00967E-002	1.96751E-008	0.00000E+000	-1.00000E-002	9.22318E-005	6	..........a	-327.65
	280	28.1	-1.14008E-004	2.01412E-008	0.00000E+000	7.45058E-009	8.99318E-005	6	..........a	-327.65
	281	28.2	1.00065E-002	2.18307E-008	0.00000E+000	1.00000E-002	8.73318E-005	6	..........a	-327.65
	282	28.3	2.00158E-002	2.27708E-008	0.00000E+000	2.00000E-002	8.93652E-005	6	..........a	-327.65
	283	28.4	3.00076E-002	2.47793E-008	0.00000E+000	3.00000E-002	8.30652E-005	6	..........a	-327.65
	284	28.5	3.99779E-002	2.37418E-008	0.00000E+000	4.00000E-002	8.86318E-005	6	..........a	-327.65
	285	28.6	4.99968E-002	2.69463E-008	0.00000E+000	5.00000E-002	8.76652E-005	6	..........a	-327.65
	286	28.7	6.00017E-002	2.88898E-008	0.00000E+000	6.00000E-002	8.59651E-005	6	..........a	-327.65
	287	28.8	7.00045E-002	2.74724E-008	0.00000E+000	7.00000E-002	8.28318E-005	6	..........a	-327.65
	288	28.9	7.99957E-002	2.92623E-008	0.00000E+000	8.00000E-002	8.80651E-005	6	..........a	-327.65
	289	29	8.99858E-002	3.25602E-008	0.00000E+000	9.00000E-002	8.47318E-005	6	..........a	-327.65
	290	29.1	1.00004E-001	3.50778E-008	0.00000E+000	1.00000E-001	8.86318E-005	6	..........a	-327.65
	291	29.2	1.09998E-001	3.56588E-008	0.00000E+000	1.10000E-001	8.23985E-005	6	..........a	-327.65
	292	29.3	1.19987E-001	3.69691E-008	0.00000E+000	1.20000E-001	8.99652E-005	6	..........a	-327.65
	293	29.4	1.29987E-001	3.75016E-008	0.00000E+000	1.30000E-001	9.27985E-005	6	..........a	-327.65
	294	29.5	1.40018E-001	4.21530E-008	0.00000E+000	1.40000E-001	9.29985E-005	6	..........a	-327.65
	295	29.6	1.50018E-001	4.08349E-008	0.00000E+000	1.50000E-001	8.77318E-005	6	..........a	-327.65
	296	29.7	1.59989E-001	4.34344E-008	0.00000E+000	1.60000E-001	8.87985E-005	6	..........a	-327.65
	297	29.8	1.70020E-001	4.53225E-008	0.00000E+000	1.70000E-001	9.02318E-005	6	..........a	-327.65
	298	29.9	1.80002E-001	4.59669E-008	0.00000E+000	1.80000E-001	9.06318E-005	6	..........a	-327.65
	299	30	1.90024E-001	4.89127E-008	0.00000E+000	1.90000E-001	9.11318E-005	6	..........a	-327.65
	300	30.1	1.99995E-001	4.76375E-008	0.00000E+000	2.00000E-001	9.10985E-005	6	..........a	-327.65
	301	30.2	2.09984E-001	4.79979E-008	0.00000E+000	2.10000E-001	9.41318E-005	6	..........a	-327.65
	302	30.3	2.19980E-001	5.00825E-008	0.00000E+000	2.20000E-001	9.43318E-005	6	..........a	-327.65
	303	30.4	2.30007E-001	5.38589E-008	0.00000E+000	2.30000E-001	9.49318E-005	6	..........a	-327.65
	304	30.5	2.40005E-001	5.31463E-008	0.00000E+000	2.40000E-001	9.47985E-005	6	..........a	-327.65
	305	30.6	2.50011E-001	5.63419E-008	0.00000E+000	2.50000E-001	9.48652E-005	6	..........a	-327.65
	306	30.7	2.59996E-001	5.58595E-008	0.00000E+000	2.60000E-001	9.45985E-005	6	..........a	-327.65
	307	30.8	2.69985E-001	5.61262E-008	0.00000E+000	2.70000E-001	9.16318E-005	6	..........a	-327.65
	308	30.9	2.79986E-001	5.73307E-008	0.00000E+000	2.80000E-001	9.22318E-005	6	..........a	-327.65
	309	31	2.90011E-001	5.85108E-008	0.00000E+000	2.90000E-001	1.00132E-004	6	..........a	-327.65
	310	31.1	3.00019E-001	5.95111E-008	0.00000E+000	3.00000E-001	9.64985E-005	6	..........a	-327.65
	311	31.2	3.10011E-001	5.90945E-008	0.00000E+000	3.10000E-001	9.48318E-005	6	..........a	-327.65
	312	31.3	3.20000E-001	6.05607E-008	0.00000E+000	3.20000E-001	9.90652E-005	6	..........a	-327.65
	313	31.4	3.29989E-001	6.18488E-008	0.00000E+000	3.30000E-001	9.60318E-005	6	..........a	-327.65
	314	31.5	3.40024E-001	6.22230E-008	0.00000E+000	3.40000E-001	9.16985E-005	6	..........a	-327.65
	315	31.6	3.50079E-001	6.24242E-008	0.00000E+000	3.50000E-001	9.49652E-005	6	..........a	-327.65
	316	31.7	3.59973E-001	6.36166E-008	0.00000E+000	3.60000E-001	1.01865E-004	6	..........a	-327.65
	317	31.8	3.69997E-001	6.28927E-008	0.00000E+000	3.70000E-001	9.94651E-005	6	..........a	-327.65
	318	31.9	3.79989E-001	6.29227E-008	0.00000E+000	3.80000E-001	9.80652E-005	6	..........a	-327.65
	319	32	3.90034E-001	6.24676E-008	0.00000E+000	3.90000E-001	9.79318E-005	6	..........a	-327.65
	320	32.1	4.00009E-001	6.11885E-008	0.00000E+000	4.00000E-001	9.18985E-005	6	..........a	-327.65
	321	32.2	4.10038E-001	6.02882E-008	0.00000E+000	4.10000E-001	9.46985E-005	6	..........a	-327.65
	322	32.3	4.20079E-001	6.04152E-008	0.00000E+000	4.20000E-001	1.00998E-004	6	..........a	-327.65
	323	32.4	4.30039E-001	5.95489E-008	0.00000E+000	4.30000E-001	9.68985E-005	6	..........a	-327.65
	324	32.5	4.40058E-001	6.22000E-008	0.00000E+000	4.40000E-001	9.61318E-005	6	..........a	-327.65
	325	32.6	4.50031E-001	5.86414E-008	0.00000E+000	4.50000E-001	1.05732E-004	6	..........a	-327.65
	326	32.7	4.60077E-001	5.68187E-008	0.00000E+000	4.60000E-001	1.04265E-004	6	..........a	-327.65
	327	32.8	4.70082E-001	5.79413E-008	0.00000E+000	4.70000E-001	1.06732E-004	6	..........a	-327.65
	328	32.9	4.80061E-001	5.25238E-008	0.00000E+000	4.80000E-001	1.02098E-004	6	..........a	-327.65
	329	33	4.90055E-001	5.17169E-008	0.00000E+000	4.90000E-001	9.76985E-005	6	..........a	-327.65
	330	33.1	5.00055E-001	5.30249E-008	0.00000E+000	5.00000E-001	9.87318E-005	6	..........a	-327.65
	331	33.2	5.10064E-001	5.26776E-008	0.00000E+000	5.10000E-001	9.80652E-005	6	..........a	-327.65
	332	33.3	5.20042E-001	5.26562E-008	0.00000E+000	5.20000E-001	9.31652E-005	6	..........a	-327.65
	333	33.4	5.30031E-001	5.32930E-008	0.00000E+000	5.30000E-001	9.69985E-005	6	..........a	-327.65
	334	33.5	5.40047E-001	5.39090E-008	0.00000E+000	5.40000E-001	9.81318E-005	6	..........a	-327.65
	335	33.6	5.50084E-001	5.49179E-008	0.00000E+000	5.50000E-001	9.29318E-005	6	..........a	-327.65
	336	33.7	5.60063E-001	5.94113E-008	0.00000E+000	5.60000E-001	9.94651E-005	6	..........a	-327.65
	337	33.8	5.70045E-001	5.51382E-008	0.00000E+000	5.70000E-001	9.80318E-005	6	..........a	-327.65
	338	33.9	5.80072E-001	5.10452E-008	0.00000E+000	5.80000E-001	9.47318E-005	6	..........a	-327.65
	339	34	5.90047E-001	4.99091E-008	0.00000E+000	5.90000E-001	9.47985E-005	6	..........a	-327.65
	340	34.1	6.00070E-001	5.14018E-008	0.00000E+000	6.00000E-001	9.35318E-005	6	..........a	-327.65
	341	34.2	6.10044E-001	5.13815E-008	0.00000E+000	6.10000E-001	9.60985E-005	6	..........a	-327.65
	342	34.3	6.20054E-001	5.54071E-008	0.00000E+000	6.20000E-001	9.80318E-005	6	..........a	-327.65
	343	34.4	6.30063E-001	5.32212E-008	0.00000E+000	6.30000E-001	9.75318E-005	6	..........a	-327.65
	344	34.5	6.40040E-001	5.47575E-008	0.00000E+000	6.40000E-001	9.68985E-005	6	..........a	-327.65
	345	34.6	6.50070E-001	5.49546E-008	0.00000E+000	6.50000E-001	9.82318E-005	6	..........a	-327.65
	346	34.7	6.60097E-001	5.46150E-008	0.00000E+000	6.60000E-001	9.65985E-005	6	..........a	-327.65
	347	34.8	6.70055E-001	5.75374E-008	0.00000E+000	6.70000E-001	9.97318E-005	6	..........a	-327.65
	348	34.9	6.80011E-001	5.80531E-008	0.00000E+000	6.80000E-001	1.00665E-004	6	..........a	-327.65
	349	35	6.90039E-001	5.58729E-008	0.00000E+000	6.90000E-001	9.56985E-005	6	..........a	-327.65
	350	35.1	7.00079E-001	6.11436E-008	0.00000E+000	7.00000E-001	9.39652E-005	6	..........a	-327.65
	351	35.2	7.10096E-001	5.80598E-008	0.00000E+000	7.10000E-001	9.85652E-005	6	..........a	-327.65
	352	35.3	7.20034E-001	5.61526E-008	0.00000E+000	7.20000E-001	9.59318E-005	6	..........a	-327.65
	353	35.4	7.30016E-001	5.93630E-008	0.00000E+000	7.30000E-001	9.48652E-005	6	..........a	-327.65
	354	35.5	7.40053E-001	5.86478E-008	0.00000E+000	7.40000E-001	9.34318E-005	6	..........a	-327.65
	355	35.6	7.50062E-001	5.89781E-008	0.00000E+000	7.50000E-001	1.01565E-004	6	..........a	-327.65
	356	35.7	7.60099E-001	6.02264E-008	0.00000E+000	7.60000E-001	9.75985E-005	6	..........a	-327.65
	357	35.8	7.70026E-001	5.94824E-008	0.00000E+000	7.70000E-001	1.00998E-004	6	..........a	-327.65
	358	35.9	7.80066E-001	6.11255E-008	0.00000E+000	7.80000E-001	9.89652E-005	6	..........a	-327.65
	359	36	7.90066E-001	6.46130E-008	0.00000E+000	7.90000E-001	9.88652E-005	6	..........a	-327.65
	360	36.1	8.00053E-001	6.71517E-008	0.00000E+000	8.00000E-001	9.55985E-005	6	..........a	-327.65
	361	36.2	7.90106E-001	3.81259E-008	0.00000E+000	7.90000E-001	9.86318E-005	6	..........a	-327.65
	362	36.3	7.80101E-001	2.86612E-008	0.00000E+000	7.80000E-001	9.59652E-005	6	..........a	-327.65
	363	36.4	7.70064E-001	1.95274E-008	0.00000E+000	7.70000E-001	9.30985E-005	6	..........a	-327.65
	364	36.5	7.60125E-001	1.26085E-008	0.00000E+000	7.60000E-001	8.63652E-005	6	..........a	-327.65
	365	36.6	7.50102E-001	7.19767E-009	0.00000E+000	7.50000E-001	9.91985E-005	6	..........a	-327.65
	366	36.7	7.40095E-001	3.42109E-009	0.00000E+000	7.40000E-001	9.32318E-005	6	..........a	-327.65
	367	36.8	7.30058E-001	3.29884E-010	0.00000E+000	7.30000E-001	8.71652E-005	6	..........a	-327.65
	368	36.9	7.20073E-001	-2.44967E-009	0.00000E+000	7.20000E-001	8.66985E-005	6	..........a	-327.65
	369	37	7.10133E-001	-4.66842E-009	0.00000E+000	7.10000E-001	9.50985E-005	6	..........a	-327.65
[...]
	1204	120.5	7.60136E-001	8.07656E-009	0.00000E+000	7.60000E-001	9.62318E-005	6	..........a	-327.65
	1205	120.6	7.50105E-001	3.22057E-009	0.00000E+000	7.50000E-001	1.03265E-004	6	..........a	-327.65
	1206	120.7	7.40097E-001	-2.03573E-010	0.00000E+000	7.40000E-001	1.00932E-004	6	..........a	-327.65
	1207	120.8	7.30059E-001	-3.09629E-009	0.00000E+000	7.30000E-001	1.01132E-004	6	..........a	-327.65
	1208	120.9	7.20082E-001	-5.53007E-009	0.00000E+000	7.20000E-001	1.06365E-004	6	..........a	-327.65
	1209	121	7.10139E-001	-7.33307E-009	0.00000E+000	7.10000E-001	9.93318E-005	6	..........a	-327.65
	1210	121.1	7.00120E-001	-9.01760E-009	0.00000E+000	7.00000E-001	1.04065E-004	6	t.........a	-327.65
	1211	121.2	6.90073E-001	-1.05658E-008	0.00000E+000	6.90000E-001	1.05398E-004	6	..........a	-327.65
	1212	121.3	6.80048E-001	-1.18347E-008	0.00000E+000	6.80000E-001	1.03499E-004	6	..........a	-327.65
	1213	121.4	6.70092E-001	-1.29925E-008	0.00000E+000	6.70000E-001	1.01332E-004	6	..........a	-327.65
	1214	121.5	6.60126E-001	-1.37333E-008	0.00000E+000	6.60000E-001	1.01832E-004	6	..........a	-327.65
	1215	121.6	6.50103E-001	-1.48150E-008	0.00000E+000	6.50000E-001	1.09432E-004	6	..........a	-327.65
	1216	121.7	6.40077E-001	-1.57018E-008	0.00000E+000	6.40000E-001	1.06598E-004	6	..........a	-327.65
	1217	121.8	6.30107E-001	-1.60123E-008	0.00000E+000	6.30000E-001	1.04132E-004	6	..........a	-327.65
	1218	121.9	6.20093E-001	-1.64290E-008	0.00000E+000	6.20000E-001	1.06265E-004	6	..........a	-327.65
	1219	122	6.10078E-001	-1.68670E-008	0.00000E+000	6.10000E-001	1.06532E-004	6	..........a	-327.65
	1220	122.1	6.00105E-001	-1.73066E-008	0.00000E+000	6.00000E-001	1.01998E-004	6	..........a	-327.65
	1221	122.2	5.90082E-001	-1.78515E-008	0.00000E+000	5.90000E-001	1.02698E-004	6	..........a	-327.65
	1222	122.3	5.80105E-001	-1.85210E-008	0.00000E+000	5.80000E-001	1.03532E-004	6	..........a	-327.65
	1223	122.4	5.70082E-001	-1.82101E-008	0.00000E+000	5.70000E-001	1.02065E-004	6	..........a	-327.65
	1224	122.5	5.60104E-001	-1.90461E-008	0.00000E+000	5.60000E-001	9.95652E-005	6	..........a	-327.65
	1225	122.6	5.50122E-001	-1.93977E-008	0.00000E+000	5.50000E-001	1.04065E-004	6	..........a	-327.65
	1226	122.7	5.40087E-001	-1.92568E-008	0.00000E+000	5.40000E-001	9.91318E-005	6	..........a	-327.65
	1227	122.8	5.30064E-001	-1.97351E-008	0.00000E+000	5.30000E-001	1.01365E-004	6	..........a	-327.65
	1228	122.9	5.20080E-001	-2.03568E-008	0.00000E+000	5.20000E-001	9.96985E-005	6	..........a	-327.65
	1229	123	5.10093E-001	-1.99286E-008	0.00000E+000	5.10000E-001	1.02032E-004	6	..........a	-327.65
	1230	123.1	5.00085E-001	-2.05352E-008	0.00000E+000	5.00000E-001	9.85652E-005	6	..........a	-327.65
	1231	123.2	4.90087E-001	-2.09956E-008	0.00000E+000	4.90000E-001	1.03099E-004	6	..........a	-327.65
	1232	123.3	4.80093E-001	-2.15733E-008	0.00000E+000	4.80000E-001	1.00032E-004	6	..........a	-327.65
	1233	123.4	4.70113E-001	-2.11484E-008	0.00000E+000	4.70000E-001	1.03765E-004	6	..........a	-327.65
	1234	123.5	4.60111E-001	-2.25733E-008	0.00000E+000	4.60000E-001	1.05765E-004	6	..........a	-327.65
	1235	123.6	4.50062E-001	-2.12494E-008	0.00000E+000	4.50000E-001	1.09632E-004	6	..........a	-327.65
	1236	123.7	4.40087E-001	-2.22692E-008	0.00000E+000	4.40000E-001	1.02332E-004	6	..........a	-327.65
	1237	123.8	4.30071E-001	-2.16521E-008	0.00000E+000	4.30000E-001	1.02165E-004	6	..........a	-327.65
	1238	123.9	4.20114E-001	-2.23742E-008	0.00000E+000	4.20000E-001	1.02065E-004	6	..........a	-327.65
	1239	124	4.10071E-001	-2.23181E-008	0.00000E+000	4.10000E-001	1.09032E-004	6	..........a	-327.65
	1240	124.1	4.00041E-001	-2.21903E-008	0.00000E+000	4.00000E-001	1.00165E-004	6	..........a	-327.65
	1241	124.2	3.90067E-001	-2.26250E-008	0.00000E+000	3.90000E-001	9.15652E-005	6	..........a	-327.65
	1242	124.3	3.80023E-001	-2.25825E-008	0.00000E+000	3.80000E-001	9.66985E-005	6	..........a	-327.65
	1243	124.4	3.70030E-001	-2.22048E-008	0.00000E+000	3.70000E-001	1.01132E-004	6	..........a	-327.65
	1244	124.5	3.60009E-001	-2.25403E-008	0.00000E+000	3.60000E-001	9.67318E-005	6	..........a	-327.65
	1245	124.6	3.50118E-001	-2.26512E-008	0.00000E+000	3.50000E-001	9.38652E-005	6	..........a	-327.65
	1246	124.7	3.40053E-001	-2.19712E-008	0.00000E+000	3.40000E-001	9.82652E-005	6	..........a	-327.65
	1247	124.8	3.30020E-001	-2.30907E-008	0.00000E+000	3.30000E-001	9.87318E-005	6	..........a	-327.65
	1248	124.9	3.20036E-001	-2.31385E-008	0.00000E+000	3.20000E-001	9.52652E-005	6	..........a	-327.65
	1249	125	3.10044E-001	-2.34087E-008	0.00000E+000	3.10000E-001	9.79652E-005	6	..........a	-327.65
	1250	125.1	3.00045E-001	-2.29159E-008	0.00000E+000	3.00000E-001	9.65318E-005	6	..........a	-327.65
	1251	125.2	2.90042E-001	-2.27050E-008	0.00000E+000	2.90000E-001	9.91985E-005	6	..........a	-327.65
	1252	125.3	2.80024E-001	-2.29885E-008	0.00000E+000	2.80000E-001	1.02565E-004	6	..........a	-327.65
	1253	125.4	2.70023E-001	-2.29131E-008	0.00000E+000	2.70000E-001	1.04065E-004	6	..........a	-327.65
	1254	125.5	2.60032E-001	-2.34500E-008	0.00000E+000	2.60000E-001	9.89985E-005	6	..........a	-327.65
	1255	125.6	2.50045E-001	-2.34840E-008	0.00000E+000	2.50000E-001	9.51985E-005	6	..........a	-327.65
	1256	125.7	2.40047E-001	-2.33588E-008	0.00000E+000	2.40000E-001	9.83652E-005	6	..........a	-327.65
	1257	125.8	2.30046E-001	-2.38015E-008	0.00000E+000	2.30000E-001	9.92985E-005	6	..........a	-327.65
	1258	125.9	2.20015E-001	-2.39692E-008	0.00000E+000	2.20000E-001	9.99985E-005	6	..........a	-327.65
	1259	126	2.10025E-001	-2.43637E-008	0.00000E+000	2.10000E-001	1.00898E-004	6	..........a	-327.65
	1260	126.1	2.00034E-001	-2.45783E-008	0.00000E+000	2.00000E-001	1.04565E-004	6	..........a	-327.65
	1261	126.2	1.90064E-001	-2.48695E-008	0.00000E+000	1.90000E-001	9.51318E-005	6	..........a	-327.65
	1262	126.3	1.80040E-001	-2.50967E-008	0.00000E+000	1.80000E-001	9.31318E-005	6	..........a	-327.65
	1263	126.4	1.70070E-001	-2.52148E-008	0.00000E+000	1.70000E-001	9.66318E-005	6	..........a	-327.65
	1264	126.5	1.60026E-001	-2.58030E-008	0.00000E+000	1.60000E-001	9.35652E-005	6	..........a	-327.65
	1265	126.6	1.50054E-001	-2.63970E-008	0.00000E+000	1.50000E-001	8.87652E-005	6	..........a	-327.65
	1266	126.7	1.40058E-001	-2.64320E-008	0.00000E+000	1.40000E-001	9.22985E-005	6	..........a	-327.65
	1267	126.8	1.30022E-001	-2.78374E-008	0.00000E+000	1.30000E-001	9.51652E-005	6	..........a	-327.65
	1268	126.9	1.20024E-001	-2.71763E-008	0.00000E+000	1.20000E-001	9.31652E-005	6	..........a	-327.65
	1269	127	1.10042E-001	-2.87610E-008	0.00000E+000	1.10000E-001	8.76985E-005	6	..........a	-327.65
	1270	127.1	1.00045E-001	-2.83917E-008	0.00000E+000	1.00000E-001	9.19652E-005	6	..........a	-327.65
	1271	127.2	9.00324E-002	-2.88607E-008	0.00000E+000	9.00000E-002	9.72318E-005	6	..........a	-327.65
	1272	127.3	8.00409E-002	-2.86850E-008	0.00000E+000	8.00000E-002	9.04652E-005	6	..........a	-327.65
	1273	127.4	7.00472E-002	-3.00516E-008	0.00000E+000	7.00000E-002	8.66652E-005	6	..........a	-327.65
	1274	127.5	6.00443E-002	-3.02476E-008	0.00000E+000	6.00000E-002	1.02132E-004	6	..........a	-327.65
	1275	127.6	5.00344E-002	-2.93651E-008	0.00000E+000	5.00000E-002	1.05298E-004	6	..........a	-327.65
	1276	127.7	4.00125E-002	-3.04684E-008	0.00000E+000	4.00000E-002	1.01932E-004	6	..........a	-327.65
	1277	127.8	3.00488E-002	-3.05380E-008	0.00000E+000	3.00000E-002	1.04999E-004	6	..........a	-327.65
	1278	127.9	2.00491E-002	-3.07667E-008	0.00000E+000	2.00000E-002	9.96652E-005	6	..........a	-327.65
	1279	128	1.00508E-002	-3.25710E-008	0.00000E+000	1.00000E-002	9.73318E-005	6	..........a	-327.65
	1280	128.1	-7.87854E-005	-3.26349E-008	0.00000E+000	7.45058E-009	9.69652E-005	6	..........a	-327.65
	1281	128.2	-1.00514E-002	-3.27205E-008	0.00000E+000	-1.00000E-002	9.67652E-005	6	..........a	-327.65
	1282	128.3	-2.00658E-002	-3.59290E-008	0.00000E+000	-2.00000E-002	9.71985E-005	6	..........a	-327.65
	1283	128.4	-3.00536E-002	-3.67138E-008	0.00000E+000	-3.00000E-002	9.47652E-005	6	..........a	-327.65
	1284	128.5	-4.00728E-002	-3.66352E-008	0.00000E+000	-4.00000E-002	9.34652E-005	6	..........a	-327.65
	1285	128.6	-5.00559E-002	-3.70106E-008	0.00000E+000	-5.00000E-002	9.80318E-005	6	..........a	-327.65
	1286	128.7	-6.00785E-002	-3.60414E-008	0.00000E+000	-6.00000E-002	9.97318E-005	6	..........a	-327.65
	1287	128.8	-7.00602E-002	-3.68800E-008	0.00000E+000	-7.00000E-002	9.60652E-005	6	..........a	-327.65
	1288	128.9	-8.00851E-002	-3.59366E-008	0.00000E+000	-8.00000E-002	9.62318E-005	6	..........a	-327.65
	1289	129	-9.00524E-002	-3.67895E-008	0.00000E+000	-9.00000E-002	9.80985E-005	6	..........a	-327.65
	1290	129.1	-1.00100E-001	-3.43521E-008	0.00000E+000	-1.00000E-001	9.31985E-005	6	..........a	-327.65
	1291	129.2	-1.09995E-001	-3.65049E-008	0.00000E+000	-1.10000E-001	1.00032E-004	6	..........a	-327.65
	1292	129.3	-1.20063E-001	-3.47531E-008	0.00000E+000	-1.20000E-001	8.93985E-005	6	..........a	-327.65
	1293	129.4	-1.30035E-001	-3.50913E-008	0.00000E+000	-1.30000E-001	9.17985E-005	6	..........a	-327.65
	1294	129.5	-1.40084E-001	-3.83266E-008	0.00000E+000	-1.40000E-001	1.05932E-004	6	..........a	-327.65
	1295	129.6	-1.50055E-001	-4.04523E-008	0.00000E+000	-1.50000E-001	1.05265E-004	6	..........a	-327.65
	1296	129.7	-1.60037E-001	-3.96105E-008	0.00000E+000	-1.60000E-001	1.00732E-004	6	..........a	-327.65
	1297	129.8	-1.70017E-001	-3.98221E-008	0.00000E+000	-1.70000E-001	1.00232E-004	6	..........a	-327.65
	1298	129.9	-1.80070E-001	-4.59297E-008	0.00000E+000	-1.80000E-001	1.07732E-004	6	..........a	-327.65
	1299	130	-1.90066E-001	-3.85681E-008	0.00000E+000	-1.90000E-001	1.03598E-004	6	..........a	-327.65
	1300	130.1	-2.00072E-001	-4.02456E-008	0.00000E+000	-2.00000E-001	1.05698E-004	6	..........a	-327.65
	1301	130.2	-2.10009E-001	-4.65568E-008	0.00000E+000	-2.10000E-001	1.08332E-004	6	..........a	-327.65
	1302	130.3	-2.20037E-001	-4.80206E-008	0.00000E+000	-2.20000E-001	1.11232E-004	6	..........a	-327.65
	1303	130.4	-2.30033E-001	-4.89699E-008	0.00000E+000	-2.30000E-001	1.08932E-004	6	..........a	-327.65
	1304	130.5	-2.40033E-001	-4.64822E-008	0.00000E+000	-2.40000E-001	1.04398E-004	6	..........a	-327.65
	1305	130.6	-2.50036E-001	-4.81373E-008	0.00000E+000	-2.50000E-001	1.11998E-004	6	..........a	-327.65
	1306	130.7	-2.60058E-001	-4.83807E-008	0.00000E+000	-2.60000E-001	1.10465E-004	6	..........a	-327.65
	1307	130.8	-2.70033E-001	-4.85389E-008	0.00000E+000	-2.70000E-001	1.06765E-004	6	..........a	-327.65
	1308	130.9	-2.80073E-001	-4.47231E-008	0.00000E+000	-2.80000E-001	1.05865E-004	6	..........a	-327.65
	1309	131	-2.90017E-001	-4.70186E-008	0.00000E+000	-2.90000E-001	1.15032E-004	6	..........a	-327.65
	1310	131.1	-3.00070E-001	-4.94456E-008	0.00000E+000	-3.00000E-001	1.14265E-004	6	..........a	-327.65
	1311	131.2	-3.10028E-001	-5.22212E-008	0.00000E+000	-3.10000E-001	1.13632E-004	6	..........a	-327.65
	1312	131.3	-3.20054E-001	-5.28416E-008	0.00000E+000	-3.20000E-001	1.14765E-004	6	..........a	-327.65
	1313	131.4	-3.30041E-001	-5.38581E-008	0.00000E+000	-3.30000E-001	1.15932E-004	6	..........a	-327.65
	1314	131.5	-3.40074E-001	-5.55770E-008	0.00000E+000	-3.40000E-001	1.14498E-004	6	..........a	-327.65
	1315	131.6	-3.50062E-001	-5.51142E-008	0.00000E+000	-3.50000E-001	1.16998E-004	6	..........a	-327.65
	1316	131.7	-3.60062E-001	-5.29405E-008	0.00000E+000	-3.60000E-001	1.16065E-004	6	..........a	-327.65
	1317	131.8	-3.70051E-001	-5.39879E-008	0.00000E+000	-3.70000E-001	1.14698E-004	6	..........a	-327.65
	1318	131.9	-3.80071E-001	-5.72753E-008	0.00000E+000	-3.80000E-001	1.13565E-004	6	..........a	-327.65
	1319	132	-3.90043E-001	-5.88164E-008	0.00000E+000	-3.90000E-001	1.13532E-004	6	..........a	-327.65
	1320	132.1	-4.00073E-001	-6.06419E-008	0.00000E+000	-4.00000E-001	1.15098E-004	6	..........a	-327.65
	1321	132.2	-4.10109E-001	-6.20172E-008	0.00000E+000	-4.10000E-001	1.16599E-004	6	..........a	-327.65
	1322	132.3	-4.20161E-001	-6.42339E-008	0.00000E+000	-4.20000E-001	1.17532E-004	6	..........a	-327.65
	1323	132.4	-4.30120E-001	-6.74714E-008	0.00000E+000	-4.30000E-001	1.14065E-004	6	..........a	-327.65
	1324	132.5	-4.40149E-001	-6.86178E-008	0.00000E+000	-4.40000E-001	1.14365E-004	6	..........a	-327.65
	1325	132.6	-4.50130E-001	-6.87493E-008	0.00000E+000	-4.50000E-001	1.11098E-004	6	..........a	-327.65
	1326	132.7	-4.60177E-001	-7.28461E-008	0.00000E+000	-4.60000E-001	1.06498E-004	6	..........a	-327.65
	1327	132.8	-4.70096E-001	-7.25088E-008	0.00000E+000	-4.70000E-001	1.11699E-004	6	..........a	-327.65
	1328	132.9	-4.80150E-001	-7.53362E-008	0.00000E+000	-4.80000E-001	1.07065E-004	6	..........a	-327.65
	1329	133	-4.90129E-001	-7.60545E-008	0.00000E+000	-4.90000E-001	1.09232E-004	6	..........a	-327.65
	1330	133.1	-5.00151E-001	-7.60394E-008	0.00000E+000	-5.00000E-001	1.15232E-004	6	..........a	-327.65
	1331	133.2	-5.10150E-001	-7.73779E-008	0.00000E+000	-5.10000E-001	1.13432E-004	6	..........a	-327.65
	1332	133.3	-5.20101E-001	-7.80542E-008	0.00000E+000	-5.20000E-001	1.09065E-004	6	..........a	-327.65
	1333	133.4	-5.30108E-001	-8.04546E-008	0.00000E+000	-5.30000E-001	1.08532E-004	6	..........a	-327.65
	1334	133.5	-5.40157E-001	-8.18738E-008	0.00000E+000	-5.40000E-001	1.02032E-004	6	..........a	-327.65
	1335	133.6	-5.50117E-001	-8.74011E-008	0.00000E+000	-5.50000E-001	1.09565E-004	6	..........a	-327.65
	1336	133.7	-5.60155E-001	-8.80425E-008	0.00000E+000	-5.60000E-001	1.07798E-004	6	..........a	-327.65
	1337	133.8	-5.70101E-001	-8.85358E-008	0.00000E+000	-5.70000E-001	1.13199E-004	6	..........a	-327.65
	1338	133.9	-5.80129E-001	-8.81051E-008	0.00000E+000	-5.80000E-001	1.08732E-004	6	..........a	-327.65
	1339	134	-5.90142E-001	-8.42138E-008	0.00000E+000	-5.90000E-001	1.04398E-004	6	..........a	-327.65
	1340	134.1	-6.00186E-001	-8.77910E-008	0.00000E+000	-6.00000E-001	1.19723E-003	6	..........a	-327.65
CURVE6	TABLE
	Pt	T	Vf	Im	Vu	Sig	Ach	IERange	Over	Temp
	#	s	V vs. Ref.	A	V	V	V	#	bits	deg C
	1341	134.2	-5.90174E-001	-6.54407E-008	0.00000E+000	-5.90000E-001	1.08432E-004	6	..........a	-327.65
	1342	134.3	-5.80169E-001	-5.79318E-008	0.00000E+000	-5.80000E-001	1.11998E-004	6	..........a	-327.65
	1343	134.4	-5.70135E-001	-4.66222E-008	0.00000E+000	-5.70000E-001	1.16799E-004	6	..........a	-327.65
	1344	134.5	-5.60190E-001	-4.10504E-008	0.00000E+000	-5.60000E-001	1.16032E-004	6	..........a	-327.65
	1345	134.6	-5.50148E-001	-3.72172E-008	0.00000E+000	-5.50000E-001	1.12065E-004	6	..........a	-327.65
	1346	134.7	-5.40197E-001	-3.22582E-008	0.00000E+000	-5.40000E-001	1.06365E-004	6	..........a	-327.65
	1347	134.8	-5.30150E-001	-2.98644E-008	0.00000E+000	-5.30000E-001	1.01865E-004	6	..........a	-327.65
	1348	134.9	-5.20145E-001	-2.66914E-008	0.00000E+000	-5.20000E-001	1.08132E-004	6	..........a	-327.65
	1349	135	-5.10207E-001	-2.56219E-008	0.00000E+000	-5.10000E-001	1.00398E-004	6	..........a	-327.65
	1350	135.1	-5.00203E-001	-2.24502E-008	0.00000E+000	-5.00000E-001	9.80985E-005	6	..........a	-327.65
	1351	135.2	-4.90179E-001	-2.02614E-008	0.00000E+000	-4.90000E-001	1.01799E-004	6	..........a	-327.65
	1352	135.3	-4.80199E-001	-1.81083E-008	0.00000E+000	-4.80000E-001	1.03199E-004	6	..........a	-327.65
	1353	135.4	-4.70144E-001	-1.66921E-008	0.00000E+000	-4.70000E-001	1.01665E-004	6	..........a	-327.65
	1354	135.5	-4.60241E-001	-1.45088E-008	0.00000E+000	-4.60000E-001	1.00932E-004	6	..........a	-327.65
	1355	135.6	-4.50180E-001	-1.31866E-008	0.00000E+000	-4.50000E-001	1.04065E-004	6	..........a	-327.65
	1356	135.7	-4.40218E-001	-1.25485E-008	0.00000E+000	-4.40000E-001	1.04065E-004	6	..........a	-327.65
	1357	135.8	-4.30187E-001	-1.17745E-008	0.00000E+000	-4.30000E-001	1.03332E-004	6	..........a	-327.65
	1358	135.9	-4.20235E-001	-1.00313E-008	0.00000E+000	-4.20000E-001	1.02298E-004	6	..........a	-327.65
	1359	136	-4.10166E-001	-9.73984E-009	0.00000E+000	-4.10000E-001	9.95985E-005	6	..........a	-327.65
	1360	136.1	-4.00136E-001	-8.54496E-009	0.00000E+000	-4.00000E-001	9.73985E-005	6	..........a	-327.65
	1361	136.2	-3.90117E-001	-8.13264E-009	0.00000E+000	-3.90000E-001	1.07665E-004	6	..........a	-327.65
	1362	136.3	-3.80129E-001	-7.20873E-009	0.00000E+000	-3.80000E-001	1.05998E-004	6	..........a	-327.65
	1363	136.4	-3.70103E-001	-6.71782E-009	0.00000E+000	-3.70000E-001	9.55985E-005	6	..........a	-327.65
	1364	136.5	-3.60125E-001	-6.10994E-009	0.00000E+000	-3.60000E-001	9.45985E-005	6	..........a	-327.65
	1365	136.6	-3.50129E-001	-4.99185E-009	0.00000E+000	-3.50000E-001	1.02098E-004	6	..........a	-327.65
	1366	136.7	-3.40150E-001	-4.14586E-009	0.00000E+000	-3.40000E-001	9.94985E-005	6	..........a	-327.65
	1367	136.8	-3.30099E-001	-3.21876E-009	0.00000E+000	-3.30000E-001	1.00832E-004	6	..........a	-327.65
	1368	136.9	-3.20117E-001	-2.62022E-009	0.00000E+000	-3.20000E-001	1.00632E-004	6	..........a	-327.65
	1369	137	-3.10097E-001	-2.02211E-009	0.00000E+000	-3.10000E-001	9.80985E-005	6	..........a	-327.65
	1370	137.1	-3.00126E-001	-1.91588E-009	0.00000E+000	-3.00000E-001	9.91652E-005	6	..........a	-327.65
	1371	137.2	-2.90070E-001	-7.47099E-010	0.00000E+000	-2.90000E-001	9.51652E-005	6	..........a	-327.65
	1372	137.3	-2.80128E-001	5.00267E-010	0.00000E+000	-2.80000E-001	9.82652E-005	6	..........a	-327.65
	1373	137.4	-2.70095E-001	1.47129E-009	0.00000E+000	-2.70000E-001	9.81985E-005	6	..........a	-327.65
	1374	137.5	-2.60120E-001	2.32097E-009	0.00000E+000	-2.60000E-001	1.05265E-004	6	..........a	-327.65
	1375	137.6	-2.50092E-001	3.13454E-009	0.00000E+000	-2.50000E-001	1.03932E-004	6	..........a	-327.65
	1376	137.7	-2.40116E-001	3.89747E-009	0.00000E+000	-2.40000E-001	1.03398E-004	6	..........a	-327.65
	1377	137.8	-2.30104E-001	4.67860E-009	0.00000E+000	-2.30000E-001	1.02799E-004	6	..........a	-327.65
	1378	137.9	-2.20099E-001	5.43842E-009	0.00000E+000	-2.20000E-001	9.98652E-005	6	..........a	-327.65
	1379	138	-2.10060E-001	6.17624E-009	0.00000E+000	-2.10000E-001	1.07332E-004	6	..........a	-327.65
	1380	138.1	-2.00116E-001	6.86817E-009	0.00000E+000	-2.00000E-001	1.02932E-004	6	..........a	-327.65
	1381	138.2	-1.90117E-001	7.67211E-009	0.00000E+000	-1.90000E-001	1.02098E-004	6	..........a	-327.65
	1382	138.3	-1.80121E-001	8.43310E-009	0.00000E+000	-1.80000E-001	1.08832E-004	6	..........a	-327.65
	1383	138.4	-1.70071E-001	8.99486E-009	0.00000E+000	-1.70000E-001	1.02532E-004	6	..........a	-327.65
	1384	138.5	-1.60093E-001	9.68547E-009	0.00000E+000	-1.60000E-001	1.01932E-004	6	..........a	-327.65
	1385	138.6	-1.50114E-001	1.00982E-008	0.00000E+000	-1.50000E-001	1.00732E-004	6	..........a	-327.65
	1386	138.7	-1.40143E-001	1.11900E-008	0.00000E+000	-1.40000E-001	1.01298E-004	6	..........a	-327.65
	1387	138.8	-1.30079E-001	1.15825E-008	0.00000E+000	-1.30000E-001	9.83318E-005	6	..........a	-327.65
	1388	138.9	-1.20104E-001	1.22444E-008	0.00000E+000	-1.20000E-001	9.58985E-005	6	..........a	-327.65
	1389	139	-1.10042E-001	1.24559E-008	0.00000E+000	-1.10000E-001	1.00165E-004	6	..........a	-327.65
	1390	139.1	-1.00135E-001	1.31913E-008	0.00000E+000	-1.00000E-001	1.04665E-004	6	..........a	-327.65
	1391	139.2	-9.00956E-002	1.42843E-008	0.00000E+000	-9.00000E-002	9.95652E-005	6	..........a	-327.65
	1392	139.3	-8.01226E-002	1.47069E-008	0.00000E+000	-8.00000E-002	9.93652E-005	6	..........a	-327.65
	1393	139.4	-7.01020E-002	1.53502E-008	0.00000E+000	-7.00000E-002	1.03099E-004	6	..........a	-327.65
	1394	139.5	-6.01192E-002	1.59997E-008	0.00000E+000	-6.00000E-002	1.04965E-004	6	..........a	-327.65
	1395	139.6	-5.01036E-002	1.66048E-008	0.00000E+000	-5.00000E-002	9.92652E-005	6	..........a	-327.65
	1396	139.7	-4.01147E-002	1.72287E-008	0.00000E+000	-4.00000E-002	1.05198E-004	6	..........a	-327.65
	1397	139.8	-3.01076E-002	1.86752E-008	0.00000E+000	-3.00000E-002	1.11332E-004	6	..........a	-327.65
	1398	139.9	-2.01077E-002	1.94190E-008	0.00000E+000	-2.00000E-002	1.05365E-004	6	..........a	-327.65
	1399	140	-1.00851E-002	2.04148E-008	0.00000E+000	-1.00000E-002	1.06665E-004	6	..........a	-327.65
	1400	140.1	-1.17692E-004	2.26889E-008	0.00000E+000	7.45058E-009	9.92985E-005	6	..........a	-327.65