File: Figure 1F/data/5M.DTA
EXPLAIN
TAG	CV
TITLE	LABEL	Cyclic Voltammetry	Test &Identifier
DATE	LABEL	8/23/2021	Date
TIME	LABEL	17:16:21	Time
NOTES	NOTES	1	&Notes...

PSTAT	PSTAT	REF600P-40007	Potentiostat
VINIT	POTEN	0.00000E+000	F	Initial &E (V)
VLIMIT1	POTEN	8.00000E-001	F	Scan Limit &1 (V)
VLIMIT2	POTEN	-6.00000E-001	F	Scan Limit &2 (V)
VFINAL	POTEN	0.00000E+000	F	Final &E (V)
SCANRATE	QUANT	9.99998E+001	&Scan Rate (mV/s)
STEPSIZE	QUANT	1.00000E+001	St&ep Size (mV)
CYCLES	IQUANT	5	C&ycles (#)
IMODE	SELECTOR	0	I/E Range &Mode
IRANGE	QUANT	3.00000E-001	&Max Current (mA)
AREA	QUANT	2.87000E-005	Electrode &Area (cm^2)
ELECTRODETYPE	SELECTOR	0	Electrode Type
STRIPPING	TOGGLE	F	Used for Stripping
POLARITY	TOGGLE	F	Signal Polarity
CONDIT	TWOPARAM	F	1.50000E+001	0.00000E+000	Conditionin&g	Time(s)	E(V)
DELAY	TWOPARAM	T	5.00000E+000	0.00000E+000	Init. De&lay	Time(s)	Stab.(mV/s)
EQDELAY	QUANT	5.00000E+000	Equil. &Time (s)
IRCOMP	SELECTOR	0	IRCom&p
PFCOR	QUANT	5.00000E+001	PF Corr. (ohm)
SAMPLINGMODE	SELECTOR	2	Sampling &Mode
OCVCURVE	TABLE	19
	Pt	T	Vf	Vm	Ach	Over	Temp
	#	s	V vs. Ref.	V	V	bits	deg C
	0	0.258333	7.71830E-002	7.71830E-002	1.15847E-003	..........a	-327.65
	1	0.516667	7.71954E-002	7.78283E-002	1.15334E-003	..........a	-327.65
	2	0.775	7.72716E-002	7.84678E-002	1.15194E-003	..........a	-327.65
	3	1.03333	7.74891E-002	7.90870E-002	1.15174E-003	..........a	-327.65
	4	1.29167	7.78806E-002	7.95983E-002	1.15874E-003	..........a	-327.65
	5	1.55	7.84022E-002	8.02496E-002	1.16180E-003	..........a	-327.65
	6	1.80833	7.89867E-002	8.09561E-002	1.15867E-003	..........a	-327.65
	7	2.06667	7.95976E-002	8.15072E-002	1.15014E-003	..........a	-327.65
	8	2.325	8.02214E-002	8.20739E-002	1.15314E-003	..........a	-327.65
	9	2.58333	8.08416E-002	8.26154E-002	1.15367E-003	..........a	-327.65
	10	2.84167	8.14411E-002	8.31543E-002	1.15627E-003	..........a	-327.65
	11	3.1	8.20154E-002	8.36931E-002	1.14554E-003	..........a	-327.65
	12	3.35833	8.25699E-002	8.42183E-002	1.15140E-003	..........a	-327.65
	13	3.61667	8.31118E-002	8.47370E-002	1.15167E-003	..........a	-327.65
	14	3.875	8.36453E-002	8.52426E-002	1.15174E-003	..........a	-327.65
	15	4.13333	8.41711E-002	8.57443E-002	1.15047E-003	..........a	-327.65
	16	4.39167	8.46889E-002	8.62411E-002	1.15520E-003	..........a	-327.65
	17	4.65	8.51989E-002	8.67371E-002	1.15940E-003	..........a	-327.65
	18	4.90833	8.57024E-002	8.72267E-002	1.15454E-003	..........a	-327.65
EOC	QUANT	0.0857024	Open Circuit (V)
PSTATMODEL	IQUANT	7	Pstat Model
PSTATSECTION	LABEL	REF600P-40007	Pstat Section
PSTATSERIALNO	LABEL	40007	Pstat Serial Number
CTRLMODE	IQUANT	1	Control Mode
ELECTROMETER	IQUANT	0	RE=0 or CS=1
IESTAB	IQUANT	2	I/E Stability
CASPEED	IQUANT	4	Control Amp Speed
CONVENTION	IQUANT	1	Current Convention
ICHRANGE	IQUANT	2	Ich Range
ICHRANGEMODE	TOGGLE	F	Ich Auto Range
ICHOFFSETENABLE	TOGGLE	F	Ich Offset Enable
ICHOFFSET	QUANT	0	Ich Offset (V)
ICHFILTER	IQUANT	2	Ich Filter
VCHRANGE	IQUANT	2	Vch Range
VCHRANGEMODE	TOGGLE	F	Vch Auto Range
VCHOFFSETENABLE	TOGGLE	F	Vch Offset Enable
VCHOFFSET	QUANT	0	Vch Offset (V)
VCHFILTER	IQUANT	2	Vch Filter
ACHRANGE	IQUANT	2	Ach Range
ACHOFFSETENABLE	TOGGLE	F	Ach Offset Enable
ACHOFFSET	QUANT	0	Ach Offset (V)
ACHFILTER	IQUANT	1	Ach Filter
IERANGELOWERLIMIT	IQUANT	1	I/E Range Lower Limit
IERANGEMODE	TOGGLE	T	I/E AutoRange
IERANGE	IQUANT	8	I/E Range
POSFEEDENABLE	TOGGLE	F	Positive Feedback IR Comp
POSFEEDRESISTANCE	QUANT	0	Positive Feedback Resistance (ohm)
ACHSELECT	IQUANT	0	Ach Select
SENSECABLEID	IQUANT	7	Sense Cable ID
PWRCABLEID	IQUANT	7	Power Cable ID
DCCALDATE	LABEL	8/21/2021	DC Calibration Date
ACCALDATE	LABEL	8/21/2021	AC Calibration Date
THERMOSELECT	IQUANT	1	Thermo Select
FRAMEWORKVERSION	LABEL	7.8.1	Framework Version
INSTRUMENTVERSION	LABEL	4.40	Instrument Version
CURVE1	TABLE
	Pt	T	Vf	Im	Vu	Sig	Ach	IERange	Over	Temp
	#	s	V vs. Ref.	A	V	V	V	#	bits	deg C
	0	0.1	6.81365E-005	1.76959E-007	0.00000E+000	7.45058E-009	1.12920E-003	8	..........a	-327.65
	1	0.2	1.01134E-002	2.05062E-008	0.00000E+000	1.00000E-002	1.13820E-003	7	......s...a	-327.65
	2	0.3	2.00814E-002	9.71300E-009	0.00000E+000	2.00000E-002	1.13177E-003	6	......s...a	-327.65
	3	0.4	3.00871E-002	1.08203E-008	0.00000E+000	3.00000E-002	1.14147E-003	6	..........a	-327.65
	4	0.5	4.00708E-002	1.18172E-008	0.00000E+000	4.00000E-002	4.24702E-005	6	..........a	-327.65
	5	0.6	5.00943E-002	1.27305E-008	0.00000E+000	5.00000E-002	4.58368E-005	6	..........a	-327.65
	6	0.7	6.01102E-002	1.36701E-008	0.00000E+000	6.00000E-002	3.89702E-005	6	..........a	-327.65
	7	0.8	7.00655E-002	1.45770E-008	0.00000E+000	7.00000E-002	3.71369E-005	6	..........a	-327.65
	8	0.9	8.00862E-002	1.55057E-008	0.00000E+000	8.00000E-002	4.05035E-005	6	..........a	-327.65
	9	1	9.00379E-002	1.64483E-008	0.00000E+000	9.00000E-002	3.70035E-005	6	..........a	-327.65
	10	1.1	1.00095E-001	1.74065E-008	0.00000E+000	1.00000E-001	3.31368E-005	6	..........a	-327.65
	11	1.2	1.10072E-001	1.83928E-008	0.00000E+000	1.10000E-001	3.32368E-005	6	..........a	-327.65
	12	1.3	1.20069E-001	1.94669E-008	0.00000E+000	1.20000E-001	3.89702E-005	6	..........a	-327.65
	13	1.4	1.30076E-001	2.04881E-008	0.00000E+000	1.30000E-001	3.77702E-005	6	..........a	-327.65
	14	1.5	1.40112E-001	2.15890E-008	0.00000E+000	1.40000E-001	3.52369E-005	6	..........a	-327.65
	15	1.6	1.50086E-001	2.27183E-008	0.00000E+000	1.50000E-001	3.41369E-005	6	..........a	-327.65
	16	1.7	1.60075E-001	2.39007E-008	0.00000E+000	1.60000E-001	3.86702E-005	6	..........a	-327.65
	17	1.8	1.70064E-001	2.50777E-008	0.00000E+000	1.70000E-001	4.16035E-005	6	..........a	-327.65
	18	1.9	1.80078E-001	2.62417E-008	0.00000E+000	1.80000E-001	4.20035E-005	6	..........a	-327.65
	19	2	1.90086E-001	2.73883E-008	0.00000E+000	1.90000E-001	4.18035E-005	6	..........a	-327.65
	20	2.1	2.00071E-001	2.85357E-008	0.00000E+000	2.00000E-001	4.13702E-005	6	..........a	-327.65
	21	2.2	2.10072E-001	2.95635E-008	0.00000E+000	2.10000E-001	3.75368E-005	6	..........a	-327.65
	22	2.3	2.20104E-001	3.06202E-008	0.00000E+000	2.20000E-001	3.70035E-005	6	..........a	-327.65
	23	2.4	2.30065E-001	3.15900E-008	0.00000E+000	2.30000E-001	3.68035E-005	6	..........a	-327.65
	24	2.5	2.40092E-001	3.25121E-008	0.00000E+000	2.40000E-001	3.87368E-005	6	..........a	-327.65
	25	2.6	2.50090E-001	3.33632E-008	0.00000E+000	2.50000E-001	3.80369E-005	6	..........a	-327.65
	26	2.7	2.60082E-001	3.42072E-008	0.00000E+000	2.60000E-001	3.55035E-005	6	..........a	-327.65
	27	2.8	2.70027E-001	3.49949E-008	0.00000E+000	2.70000E-001	4.11035E-005	6	..........a	-327.65
	28	2.9	2.80065E-001	3.57203E-008	0.00000E+000	2.80000E-001	3.69368E-005	6	..........a	-327.65
	29	3	2.90092E-001	3.64095E-008	0.00000E+000	2.90000E-001	4.54035E-005	6	..........a	-327.65
	30	3.1	3.00112E-001	3.70737E-008	0.00000E+000	3.00000E-001	4.52035E-005	6	..........a	-327.65
	31	3.2	3.10058E-001	3.76652E-008	0.00000E+000	3.10000E-001	4.53368E-005	6	..........a	-327.65
	32	3.3	3.20066E-001	3.83214E-008	0.00000E+000	3.20000E-001	4.14368E-005	6	..........a	-327.65
	33	3.4	3.30068E-001	3.89098E-008	0.00000E+000	3.30000E-001	4.77369E-005	6	..........a	-327.65
	34	3.5	3.40086E-001	3.95442E-008	0.00000E+000	3.40000E-001	4.60368E-005	6	..........a	-327.65
	35	3.6	3.50057E-001	4.01995E-008	0.00000E+000	3.50000E-001	4.34368E-005	6	..........a	-327.65
	36	3.7	3.60052E-001	4.08195E-008	0.00000E+000	3.60000E-001	4.44035E-005	6	..........a	-327.65
	37	3.8	3.70077E-001	4.14451E-008	0.00000E+000	3.70000E-001	4.49702E-005	6	..........a	-327.65
	38	3.9	3.80081E-001	4.21147E-008	0.00000E+000	3.80000E-001	4.37369E-005	6	..........a	-327.65
	39	4	3.90076E-001	4.27722E-008	0.00000E+000	3.90000E-001	4.64702E-005	6	..........a	-327.65
	40	4.1	4.00102E-001	4.35194E-008	0.00000E+000	4.00000E-001	4.63702E-005	6	..........a	-327.65
	41	4.2	4.10134E-001	4.42332E-008	0.00000E+000	4.10000E-001	4.86035E-005	6	..........a	-327.65
	42	4.3	4.20153E-001	4.50222E-008	0.00000E+000	4.20000E-001	4.56702E-005	6	..........a	-327.65
	43	4.4	4.30121E-001	4.58054E-008	0.00000E+000	4.30000E-001	4.70368E-005	6	..........a	-327.65
	44	4.5	4.40135E-001	4.66353E-008	0.00000E+000	4.40000E-001	5.06368E-005	6	..........a	-327.65
	45	4.6	4.50125E-001	4.74557E-008	0.00000E+000	4.50000E-001	4.74702E-005	6	..........a	-327.65
	46	4.7	4.60161E-001	4.83168E-008	0.00000E+000	4.60000E-001	4.32035E-005	6	..........a	-327.65
	47	4.8	4.70134E-001	4.91701E-008	0.00000E+000	4.70000E-001	4.28368E-005	6	..........a	-327.65
	48	4.9	4.80125E-001	5.00164E-008	0.00000E+000	4.80000E-001	4.57702E-005	6	..........a	-327.65
	49	5	4.90156E-001	5.08917E-008	0.00000E+000	4.90000E-001	4.79368E-005	6	..........a	-327.65
	50	5.1	5.00111E-001	5.17278E-008	0.00000E+000	5.00000E-001	4.13368E-005	6	..........a	-327.65
	51	5.2	5.10127E-001	5.25370E-008	0.00000E+000	5.10000E-001	4.83702E-005	6	..........a	-327.65
	52	5.3	5.20124E-001	5.34001E-008	0.00000E+000	5.20000E-001	5.36035E-005	6	..........a	-327.65
	53	5.4	5.30123E-001	5.42611E-008	0.00000E+000	5.30000E-001	4.92035E-005	6	..........a	-327.65
	54	5.5	5.40153E-001	5.50627E-008	0.00000E+000	5.40000E-001	5.15702E-005	6	..........a	-327.65
	55	5.6	5.50152E-001	5.58297E-008	0.00000E+000	5.50000E-001	5.01035E-005	6	..........a	-327.65
	56	5.7	5.60131E-001	5.66739E-008	0.00000E+000	5.60000E-001	5.16035E-005	6	..........a	-327.65
	57	5.8	5.70153E-001	5.74438E-008	0.00000E+000	5.70000E-001	3.97368E-005	6	..........a	-327.65
	58	5.9	5.80188E-001	5.81786E-008	0.00000E+000	5.80000E-001	4.98368E-005	6	..........a	-327.65
	59	6	5.90121E-001	5.88747E-008	0.00000E+000	5.90000E-001	4.45368E-005	6	..........a	-327.65
	60	6.1	6.00144E-001	5.96146E-008	0.00000E+000	6.00000E-001	4.77702E-005	6	..........a	-327.65
	61	6.2	6.10140E-001	6.02582E-008	0.00000E+000	6.10000E-001	5.10035E-005	6	..........a	-327.65
	62	6.3	6.20151E-001	6.08948E-008	0.00000E+000	6.20000E-001	4.91702E-005	6	..........a	-327.65
	63	6.4	6.30124E-001	6.15977E-008	0.00000E+000	6.30000E-001	4.75035E-005	6	..........a	-327.65
	64	6.5	6.40114E-001	6.22422E-008	0.00000E+000	6.40000E-001	4.75369E-005	6	..........a	-327.65
	65	6.6	6.50165E-001	6.29770E-008	0.00000E+000	6.50000E-001	4.74368E-005	6	..........a	-327.65
	66	6.7	6.60138E-001	6.34841E-008	0.00000E+000	6.60000E-001	4.46035E-005	6	..........a	-327.65
	67	6.8	6.70123E-001	6.41246E-008	0.00000E+000	6.70000E-001	4.56368E-005	6	..........a	-327.65
	68	6.9	6.80100E-001	6.47594E-008	0.00000E+000	6.80000E-001	4.65702E-005	6	..........a	-327.65
	69	7	6.90134E-001	6.54303E-008	0.00000E+000	6.90000E-001	4.52368E-005	6	..........a	-327.65
	70	7.1	7.00163E-001	6.62378E-008	0.00000E+000	7.00000E-001	3.87702E-005	6	..........a	-327.65
	71	7.2	7.10137E-001	6.68384E-008	0.00000E+000	7.10000E-001	4.60368E-005	6	..........a	-327.65
	72	7.3	7.20112E-001	6.75446E-008	0.00000E+000	7.20000E-001	4.42368E-005	6	..........a	-327.65
	73	7.4	7.30062E-001	6.83215E-008	0.00000E+000	7.30000E-001	4.62035E-005	6	..........a	-327.65
	74	7.5	7.40124E-001	6.91498E-008	0.00000E+000	7.40000E-001	4.08369E-005	6	..........a	-327.65
	75	7.6	7.50131E-001	6.99933E-008	0.00000E+000	7.50000E-001	4.19368E-005	6	..........a	-327.65
	76	7.7	7.60135E-001	7.08639E-008	0.00000E+000	7.60000E-001	4.62368E-005	6	..........a	-327.65
	77	7.8	7.70113E-001	7.18130E-008	0.00000E+000	7.70000E-001	4.14702E-005	6	..........a	-327.65
	78	7.9	7.80146E-001	7.28112E-008	0.00000E+000	7.80000E-001	5.03368E-005	6	..........a	-327.65
	79	8	7.90119E-001	7.38458E-008	0.00000E+000	7.90000E-001	4.79702E-005	6	..........a	-327.65
	80	8.1	8.00131E-001	7.49404E-008	0.00000E+000	8.00000E-001	1.13317E-003	6	..........a	-327.65
	81	8.2	7.90162E-001	4.10531E-008	0.00000E+000	7.90000E-001	4.40368E-005	6	..........a	-327.65
	82	8.3	7.80187E-001	2.96608E-008	0.00000E+000	7.80000E-001	4.84369E-005	6	..........a	-327.65
	83	8.4	7.70157E-001	2.16335E-008	0.00000E+000	7.70000E-001	3.72368E-005	6	..........a	-327.65
	84	8.5	7.60178E-001	1.56258E-008	0.00000E+000	7.60000E-001	3.61702E-005	6	..........a	-327.65
	85	8.6	7.50172E-001	1.10252E-008	0.00000E+000	7.50000E-001	4.11035E-005	6	..........a	-327.65
	86	8.7	7.40167E-001	7.33210E-009	0.00000E+000	7.40000E-001	4.65035E-005	6	..........a	-327.65
	87	8.8	7.30103E-001	4.39471E-009	0.00000E+000	7.30000E-001	4.12035E-005	6	..........a	-327.65
	88	8.9	7.20155E-001	1.96716E-009	0.00000E+000	7.20000E-001	4.04368E-005	6	..........a	-327.65
	89	9	7.10175E-001	-5.40013E-011	0.00000E+000	7.10000E-001	4.43368E-005	6	..........a	-327.65
	90	9.1	7.00208E-001	-1.78088E-009	0.00000E+000	7.00000E-001	4.66702E-005	6	..........a	-327.65
	91	9.2	6.90172E-001	-3.24557E-009	0.00000E+000	6.90000E-001	4.99368E-005	6	..........a	-327.65
	92	9.3	6.80140E-001	-4.51758E-009	0.00000E+000	6.80000E-001	5.10369E-005	6	..........a	-327.65
	93	9.4	6.70165E-001	-5.59066E-009	0.00000E+000	6.70000E-001	5.37368E-005	6	..........a	-327.65
	94	9.5	6.60182E-001	-6.54224E-009	0.00000E+000	6.60000E-001	4.83035E-005	6	..........a	-327.65
	95	9.6	6.50203E-001	-7.37505E-009	0.00000E+000	6.50000E-001	5.17368E-005	6	..........a	-327.65
	96	9.7	6.40154E-001	-8.14414E-009	0.00000E+000	6.40000E-001	5.10369E-005	6	..........a	-327.65
	97	9.8	6.30177E-001	-8.82478E-009	0.00000E+000	6.30000E-001	5.01702E-005	6	..........a	-327.65
	98	9.9	6.20195E-001	-9.45233E-009	0.00000E+000	6.20000E-001	5.15368E-005	6	..........a	-327.65
	99	10	6.10181E-001	-1.00166E-008	0.00000E+000	6.10000E-001	5.15368E-005	6	..........a	-327.65
	100	10.1	6.00187E-001	-1.05202E-008	0.00000E+000	6.00000E-001	5.27368E-005	6	..........a	-327.65
	101	10.2	5.90164E-001	-1.10113E-008	0.00000E+000	5.90000E-001	4.86368E-005	6	..........a	-327.65
	102	10.3	5.80232E-001	-1.14651E-008	0.00000E+000	5.80000E-001	4.73368E-005	6	..........a	-327.65
	103	10.4	5.70192E-001	-1.18988E-008	0.00000E+000	5.70000E-001	5.02368E-005	6	..........a	-327.65
	104	10.5	5.60172E-001	-1.22992E-008	0.00000E+000	5.60000E-001	4.99368E-005	6	..........a	-327.65
	105	10.6	5.50191E-001	-1.26552E-008	0.00000E+000	5.50000E-001	4.83702E-005	6	..........a	-327.65
	106	10.7	5.40196E-001	-1.30240E-008	0.00000E+000	5.40000E-001	5.31702E-005	6	..........a	-327.65
	107	10.8	5.30158E-001	-1.33722E-008	0.00000E+000	5.30000E-001	5.23035E-005	6	..........a	-327.65
	108	10.9	5.20165E-001	-1.36785E-008	0.00000E+000	5.20000E-001	4.72702E-005	6	..........a	-327.65
	109	11	5.10167E-001	-1.39915E-008	0.00000E+000	5.10000E-001	4.84035E-005	6	..........a	-327.65
	110	11.1	5.00154E-001	-1.42683E-008	0.00000E+000	5.00000E-001	5.01368E-005	6	..........a	-327.65
	111	11.2	4.90195E-001	-1.45523E-008	0.00000E+000	4.90000E-001	5.03702E-005	6	..........a	-327.65
	112	11.3	4.80172E-001	-1.48355E-008	0.00000E+000	4.80000E-001	5.27035E-005	6	..........a	-327.65
	113	11.4	4.70183E-001	-1.51087E-008	0.00000E+000	4.70000E-001	4.93368E-005	6	..........a	-327.65
	114	11.5	4.60214E-001	-1.53614E-008	0.00000E+000	4.60000E-001	5.65035E-005	6	..........a	-327.65
	115	11.6	4.50150E-001	-1.56147E-008	0.00000E+000	4.50000E-001	5.55035E-005	6	..........a	-327.65
	116	11.7	4.40178E-001	-1.58958E-008	0.00000E+000	4.40000E-001	5.52368E-005	6	..........a	-327.65
	117	11.8	4.30161E-001	-1.60862E-008	0.00000E+000	4.30000E-001	5.81702E-005	6	..........a	-327.65
	118	11.9	4.20196E-001	-1.63058E-008	0.00000E+000	4.20000E-001	5.31368E-005	6	..........a	-327.65
	119	12	4.10178E-001	-1.64729E-008	0.00000E+000	4.10000E-001	5.08035E-005	6	..........a	-327.65
	120	12.1	4.00156E-001	-1.66648E-008	0.00000E+000	4.00000E-001	5.88702E-005	6	..........a	-327.65
	121	12.2	3.90121E-001	-1.68881E-008	0.00000E+000	3.90000E-001	5.51702E-005	6	..........a	-327.65
	122	12.3	3.80132E-001	-1.70680E-008	0.00000E+000	3.80000E-001	5.14368E-005	6	..........a	-327.65
	123	12.4	3.70131E-001	-1.72469E-008	0.00000E+000	3.70000E-001	5.72702E-005	6	..........a	-327.65
	124	12.5	3.60100E-001	-1.73903E-008	0.00000E+000	3.60000E-001	5.46702E-005	6	..........a	-327.65
	125	12.6	3.50115E-001	-1.75559E-008	0.00000E+000	3.50000E-001	5.22035E-005	6	..........a	-327.65
	126	12.7	3.40135E-001	-1.77282E-008	0.00000E+000	3.40000E-001	5.19368E-005	6	..........a	-327.65
	127	12.8	3.30115E-001	-1.78889E-008	0.00000E+000	3.30000E-001	4.99035E-005	6	..........a	-327.65
	128	12.9	3.20117E-001	-1.80555E-008	0.00000E+000	3.20000E-001	5.10035E-005	6	..........a	-327.65
	129	13	3.10101E-001	-1.81825E-008	0.00000E+000	3.10000E-001	5.08702E-005	6	..........a	-327.65
	130	13.1	3.00166E-001	-1.83743E-008	0.00000E+000	3.00000E-001	4.76368E-005	6	..........a	-327.65
	131	13.2	2.90141E-001	-1.85474E-008	0.00000E+000	2.90000E-001	5.37035E-005	6	..........a	-327.65
	132	13.3	2.80110E-001	-1.87481E-008	0.00000E+000	2.80000E-001	4.88702E-005	6	..........a	-327.65
	133	13.4	2.70059E-001	-1.89226E-008	0.00000E+000	2.70000E-001	5.48368E-005	6	..........a	-327.65
	134	13.5	2.60130E-001	-1.91111E-008	0.00000E+000	2.60000E-001	5.16035E-005	6	..........a	-327.65
	135	13.6	2.50128E-001	-1.92878E-008	0.00000E+000	2.50000E-001	5.43702E-005	6	..........a	-327.65
	136	13.7	2.40132E-001	-1.94960E-008	0.00000E+000	2.40000E-001	5.35702E-005	6	..........a	-327.65
	137	13.8	2.30105E-001	-1.96733E-008	0.00000E+000	2.30000E-001	5.54702E-005	6	..........a	-327.65
	138	13.9	2.20151E-001	-1.98959E-008	0.00000E+000	2.20000E-001	5.76702E-005	6	..........a	-327.65
	139	14	2.10116E-001	-2.01008E-008	0.00000E+000	2.10000E-001	5.88368E-005	6	..........a	-327.65
	140	14.1	2.00117E-001	-2.03364E-008	0.00000E+000	2.00000E-001	5.75368E-005	6	..........a	-327.65
	141	14.2	1.90130E-001	-2.06034E-008	0.00000E+000	1.90000E-001	5.64035E-005	6	..........a	-327.65
	142	14.3	1.80119E-001	-2.08151E-008	0.00000E+000	1.80000E-001	5.78702E-005	6	..........a	-327.65
	143	14.4	1.70113E-001	-2.10746E-008	0.00000E+000	1.70000E-001	5.55702E-005	6	..........a	-327.65
	144	14.5	1.60117E-001	-2.13033E-008	0.00000E+000	1.60000E-001	5.23702E-005	6	..........a	-327.65
	145	14.6	1.50126E-001	-2.16086E-008	0.00000E+000	1.50000E-001	5.59702E-005	6	..........a	-327.65
	146	14.7	1.40159E-001	-2.18778E-008	0.00000E+000	1.40000E-001	5.01368E-005	6	..........a	-327.65
	147	14.8	1.30118E-001	-2.21435E-008	0.00000E+000	1.30000E-001	4.88369E-005	6	..........a	-327.65
	148	14.9	1.20114E-001	-2.24019E-008	0.00000E+000	1.20000E-001	4.49368E-005	6	..........a	-327.65
	149	15	1.10117E-001	-2.27232E-008	0.00000E+000	1.10000E-001	4.63035E-005	6	..........a	-327.65
	150	15.1	1.00143E-001	-2.30585E-008	0.00000E+000	1.00000E-001	4.59702E-005	6	..........a	-327.65
	151	15.2	9.00774E-002	-2.33208E-008	0.00000E+000	9.00000E-002	5.01035E-005	6	..........a	-327.65
	152	15.3	8.01267E-002	-2.36546E-008	0.00000E+000	8.00000E-002	4.97368E-005	6	..........a	-327.65
	153	15.4	7.01051E-002	-2.39762E-008	0.00000E+000	7.00000E-002	5.11035E-005	6	..........a	-327.65
	154	15.5	6.01503E-002	-2.43041E-008	0.00000E+000	6.00000E-002	4.62368E-005	6	..........a	-327.65
	155	15.6	5.01301E-002	-2.46549E-008	0.00000E+000	5.00000E-002	5.24702E-005	6	..........a	-327.65
	156	15.7	4.01122E-002	-2.50333E-008	0.00000E+000	4.00000E-002	5.40035E-005	6	..........a	-327.65
	157	15.8	3.01270E-002	-2.54411E-008	0.00000E+000	3.00000E-002	4.87035E-005	6	..........a	-327.65
	158	15.9	2.01188E-002	-2.58567E-008	0.00000E+000	2.00000E-002	4.88035E-005	6	..........a	-327.65
	159	16	1.01422E-002	-2.62851E-008	0.00000E+000	1.00000E-002	5.31035E-005	6	..........a	-327.65
	160	16.1	1.03494E-004	-2.67441E-008	0.00000E+000	7.45058E-009	5.14035E-005	6	..........a	-327.65
	161	16.2	-1.00005E-002	-2.72088E-008	0.00000E+000	-1.00000E-002	4.92368E-005	6	..........a	-327.65
	162	16.3	-1.99613E-002	-2.77467E-008	0.00000E+000	-2.00000E-002	4.94035E-005	6	..........a	-327.65
	163	16.4	-3.00278E-002	-2.82960E-008	0.00000E+000	-3.00000E-002	4.88702E-005	6	..........a	-327.65
	164	16.5	-3.99818E-002	-2.88421E-008	0.00000E+000	-4.00000E-002	4.43035E-005	6	..........a	-327.65
	165	16.6	-5.00305E-002	-2.93888E-008	0.00000E+000	-5.00000E-002	4.66035E-005	6	..........a	-327.65
	166	16.7	-5.99726E-002	-3.00392E-008	0.00000E+000	-6.00000E-002	4.67368E-005	6	..........a	-327.65
	167	16.8	-6.99877E-002	-3.06364E-008	0.00000E+000	-7.00000E-002	4.98368E-005	6	..........a	-327.65
	168	16.9	-7.99812E-002	-3.12820E-008	0.00000E+000	-8.00000E-002	4.91368E-005	6	..........a	-327.65
	169	17	-9.00029E-002	-3.19541E-008	0.00000E+000	-9.00000E-002	4.60035E-005	6	..........a	-327.65
	170	17.1	-9.99842E-002	-3.25944E-008	0.00000E+000	-1.00000E-001	4.86035E-005	6	..........a	-327.65
	171	17.2	-1.10004E-001	-3.33433E-008	0.00000E+000	-1.10000E-001	4.29702E-005	6	..........a	-327.65
	172	17.3	-1.19969E-001	-3.40587E-008	0.00000E+000	-1.20000E-001	4.63035E-005	6	..........a	-327.65
	173	17.4	-1.30015E-001	-3.48265E-008	0.00000E+000	-1.30000E-001	4.81368E-005	6	..........a	-327.65
	174	17.5	-1.39982E-001	-3.55879E-008	0.00000E+000	-1.40000E-001	4.36702E-005	6	..........a	-327.65
	175	17.6	-1.50006E-001	-3.62988E-008	0.00000E+000	-1.50000E-001	4.45368E-005	6	..........a	-327.65
	176	17.7	-1.59942E-001	-3.71216E-008	0.00000E+000	-1.60000E-001	5.19035E-005	6	..........a	-327.65
	177	17.8	-1.69975E-001	-3.79044E-008	0.00000E+000	-1.70000E-001	5.02702E-005	6	..........a	-327.65
	178	17.9	-1.79963E-001	-3.87164E-008	0.00000E+000	-1.80000E-001	4.43035E-005	6	..........a	-327.65
	179	18	-1.90053E-001	-3.95107E-008	0.00000E+000	-1.90000E-001	4.94368E-005	6	..........a	-327.65
	180	18.1	-1.99981E-001	-4.03600E-008	0.00000E+000	-2.00000E-001	5.31035E-005	6	..........a	-327.65
	181	18.2	-2.10007E-001	-4.11762E-008	0.00000E+000	-2.10000E-001	5.38035E-005	6	..........a	-327.65
	182	18.3	-2.19952E-001	-4.20649E-008	0.00000E+000	-2.20000E-001	5.36035E-005	6	..........a	-327.65
	183	18.4	-2.30015E-001	-4.29124E-008	0.00000E+000	-2.30000E-001	5.18702E-005	6	..........a	-327.65
	184	18.5	-2.39954E-001	-4.37483E-008	0.00000E+000	-2.40000E-001	5.59368E-005	6	..........a	-327.65
	185	18.6	-2.50002E-001	-4.46635E-008	0.00000E+000	-2.50000E-001	5.03702E-005	6	..........a	-327.65
	186	18.7	-2.59945E-001	-4.55914E-008	0.00000E+000	-2.60000E-001	5.53368E-005	6	..........a	-327.65
	187	18.8	-2.69962E-001	-4.64545E-008	0.00000E+000	-2.70000E-001	5.97702E-005	6	..........a	-327.65
	188	18.9	-2.79975E-001	-4.74389E-008	0.00000E+000	-2.80000E-001	5.94035E-005	6	..........a	-327.65
	189	19	-2.89984E-001	-4.84693E-008	0.00000E+000	-2.90000E-001	5.69369E-005	6	..........a	-327.65
	190	19.1	-2.99968E-001	-4.95162E-008	0.00000E+000	-3.00000E-001	5.64035E-005	6	..........a	-327.65
	191	19.2	-3.10005E-001	-5.06475E-008	0.00000E+000	-3.10000E-001	6.13035E-005	6	..........a	-327.65
	192	19.3	-3.19950E-001	-5.18650E-008	0.00000E+000	-3.20000E-001	5.53035E-005	6	..........a	-327.65
	193	19.4	-3.30002E-001	-5.31335E-008	0.00000E+000	-3.30000E-001	5.70035E-005	6	..........a	-327.65
	194	19.5	-3.39974E-001	-5.45231E-008	0.00000E+000	-3.40000E-001	6.05702E-005	6	..........a	-327.65
	195	19.6	-3.49996E-001	-5.59938E-008	0.00000E+000	-3.50000E-001	5.94702E-005	6	..........a	-327.65
	196	19.7	-3.59963E-001	-5.76006E-008	0.00000E+000	-3.60000E-001	5.64369E-005	6	..........a	-327.65
	197	19.8	-3.70047E-001	-5.92819E-008	0.00000E+000	-3.70000E-001	5.65035E-005	6	..........a	-327.65
	198	19.9	-3.79961E-001	-6.10349E-008	0.00000E+000	-3.80000E-001	5.75702E-005	6	..........a	-327.65
	199	20	-3.90023E-001	-6.29341E-008	0.00000E+000	-3.90000E-001	5.82368E-005	6	..........a	-327.65
	200	20.1	-3.99983E-001	-6.48868E-008	0.00000E+000	-4.00000E-001	5.52368E-005	6	..........a	-327.65
	201	20.2	-4.10068E-001	-6.69000E-008	0.00000E+000	-4.10000E-001	5.78035E-005	6	..........a	-327.65
	202	20.3	-4.20048E-001	-6.89354E-008	0.00000E+000	-4.20000E-001	5.86035E-005	6	..........a	-327.65
	203	20.4	-4.30065E-001	-7.09192E-008	0.00000E+000	-4.30000E-001	6.41702E-005	6	..........a	-327.65
	204	20.5	-4.40044E-001	-7.28595E-008	0.00000E+000	-4.40000E-001	6.15702E-005	6	..........a	-327.65
	205	20.6	-4.50063E-001	-7.47823E-008	0.00000E+000	-4.50000E-001	5.42035E-005	6	..........a	-327.65
	206	20.7	-4.60056E-001	-7.64730E-008	0.00000E+000	-4.60000E-001	5.40368E-005	6	..........a	-327.65
	207	20.8	-4.70065E-001	-7.79979E-008	0.00000E+000	-4.70000E-001	5.34702E-005	6	..........a	-327.65
	208	20.9	-4.80043E-001	-7.93109E-008	0.00000E+000	-4.80000E-001	5.45702E-005	6	..........a	-327.65
	209	21	-4.90077E-001	-8.04259E-008	0.00000E+000	-4.90000E-001	4.74035E-005	6	..........a	-327.65
	210	21.1	-5.00058E-001	-8.12640E-008	0.00000E+000	-5.00000E-001	4.41035E-005	6	..........a	-327.65
	211	21.2	-5.10095E-001	-8.19197E-008	0.00000E+000	-5.10000E-001	4.83702E-005	6	..........a	-327.65
	212	21.3	-5.20015E-001	-8.22986E-008	0.00000E+000	-5.20000E-001	5.50368E-005	6	..........a	-327.65
	213	21.4	-5.30052E-001	-8.25184E-008	0.00000E+000	-5.30000E-001	5.24702E-005	6	..........a	-327.65
	214	21.5	-5.40040E-001	-8.25533E-008	0.00000E+000	-5.40000E-001	4.98368E-005	6	..........a	-327.65
	215	21.6	-5.50108E-001	-8.24606E-008	0.00000E+000	-5.50000E-001	5.76702E-005	6	..........a	-327.65
	216	21.7	-5.60055E-001	-8.22840E-008	0.00000E+000	-5.60000E-001	5.47035E-005	6	..........a	-327.65
	217	21.8	-5.70059E-001	-8.20628E-008	0.00000E+000	-5.70000E-001	5.65035E-005	6	..........a	-327.65
	218	21.9	-5.80025E-001	-8.18947E-008	0.00000E+000	-5.80000E-001	5.57702E-005	6	..........a	-327.65
	219	22	-5.90086E-001	-8.17585E-008	0.00000E+000	-5.90000E-001	5.39702E-005	6	..........a	-327.65
	220	22.1	-6.00078E-001	-8.18435E-008	0.00000E+000	-6.00000E-001	1.14654E-003	6	..........a	-327.65
CURVE2	TABLE
	Pt	T	Vf	Im	Vu	Sig	Ach	IERange	Over	Temp
	#	s	V vs. Ref.	A	V	V	V	#	bits	deg C
	221	22.2	-5.90124E-001	-4.89906E-008	0.00000E+000	-5.90000E-001	6.00702E-005	6	..........a	-327.65
	222	22.3	-5.80068E-001	-3.90923E-008	0.00000E+000	-5.80000E-001	6.17035E-005	6	..........a	-327.65
	223	22.4	-5.70095E-001	-3.24324E-008	0.00000E+000	-5.70000E-001	6.20035E-005	6	..........a	-327.65
	224	22.5	-5.60098E-001	-2.75646E-008	0.00000E+000	-5.60000E-001	5.43369E-005	6	..........a	-327.65
	225	22.6	-5.50165E-001	-2.39339E-008	0.00000E+000	-5.50000E-001	4.67368E-005	6	..........a	-327.65
	226	22.7	-5.40092E-001	-2.11494E-008	0.00000E+000	-5.40000E-001	4.61035E-005	6	..........a	-327.65
	227	22.8	-5.30101E-001	-1.90125E-008	0.00000E+000	-5.30000E-001	4.44368E-005	6	..........a	-327.65
	228	22.9	-5.20070E-001	-1.72567E-008	0.00000E+000	-5.20000E-001	4.62035E-005	6	..........a	-327.65
	229	23	-5.10145E-001	-1.58598E-008	0.00000E+000	-5.10000E-001	5.12702E-005	6	..........a	-327.65
	230	23.1	-5.00102E-001	-1.45399E-008	0.00000E+000	-5.00000E-001	5.37702E-005	6	..........a	-327.65
	231	23.2	-4.90131E-001	-1.34139E-008	0.00000E+000	-4.90000E-001	5.37368E-005	6	..........a	-327.65
	232	23.3	-4.80096E-001	-1.23566E-008	0.00000E+000	-4.80000E-001	4.93702E-005	6	..........a	-327.65
	233	23.4	-4.70134E-001	-1.13769E-008	0.00000E+000	-4.70000E-001	5.46702E-005	6	..........a	-327.65
	234	23.5	-4.60112E-001	-1.04215E-008	0.00000E+000	-4.60000E-001	4.89035E-005	6	..........a	-327.65
	235	23.6	-4.50116E-001	-9.51025E-009	0.00000E+000	-4.50000E-001	5.61368E-005	6	..........a	-327.65
	236	23.7	-4.40106E-001	-8.61368E-009	0.00000E+000	-4.40000E-001	5.33369E-005	6	..........a	-327.65
	237	23.8	-4.30117E-001	-7.74459E-009	0.00000E+000	-4.30000E-001	5.19368E-005	6	..........a	-327.65
	238	23.9	-4.20103E-001	-6.91482E-009	0.00000E+000	-4.20000E-001	5.06368E-005	6	..........a	-327.65
	239	24	-4.10124E-001	-6.02489E-009	0.00000E+000	-4.10000E-001	5.27035E-005	6	..........a	-327.65
	240	24.1	-4.00038E-001	-5.20048E-009	0.00000E+000	-4.00000E-001	5.64702E-005	6	..........a	-327.65
	241	24.2	-3.90083E-001	-4.38854E-009	0.00000E+000	-3.90000E-001	5.76702E-005	6	..........a	-327.65
	242	24.3	-3.80020E-001	-3.59814E-009	0.00000E+000	-3.80000E-001	5.35035E-005	6	..........a	-327.65
	243	24.4	-3.70105E-001	-2.76273E-009	0.00000E+000	-3.70000E-001	5.28702E-005	6	..........a	-327.65
	244	24.5	-3.60026E-001	-1.97243E-009	0.00000E+000	-3.60000E-001	5.61035E-005	6	..........a	-327.65
	245	24.6	-3.50050E-001	-1.19587E-009	0.00000E+000	-3.50000E-001	5.45702E-005	6	..........a	-327.65
	246	24.7	-3.40028E-001	-4.35647E-010	0.00000E+000	-3.40000E-001	5.23702E-005	6	..........a	-327.65
	247	24.8	-3.30055E-001	3.34680E-010	0.00000E+000	-3.30000E-001	5.35035E-005	6	..........a	-327.65
	248	24.9	-3.20011E-001	1.09580E-009	0.00000E+000	-3.20000E-001	5.15035E-005	6	..........a	-327.65
	249	25	-3.10062E-001	1.83685E-009	0.00000E+000	-3.10000E-001	5.56702E-005	6	..........a	-327.65
	250	25.1	-3.00023E-001	2.56547E-009	0.00000E+000	-3.00000E-001	5.60035E-005	6	..........a	-327.65
	251	25.2	-2.90060E-001	3.28435E-009	0.00000E+000	-2.90000E-001	5.23035E-005	6	..........a	-327.65
	252	25.3	-2.80037E-001	3.99999E-009	0.00000E+000	-2.80000E-001	5.56368E-005	6	..........a	-327.65
	253	25.4	-2.70020E-001	4.70483E-009	0.00000E+000	-2.70000E-001	5.84035E-005	6	..........a	-327.65
	254	25.5	-2.60003E-001	5.41984E-009	0.00000E+000	-2.60000E-001	5.24702E-005	6	..........a	-327.65
	255	25.6	-2.50055E-001	6.14152E-009	0.00000E+000	-2.50000E-001	4.70702E-005	6	..........a	-327.65
	256	25.7	-2.40013E-001	6.83479E-009	0.00000E+000	-2.40000E-001	5.23368E-005	6	..........a	-327.65
	257	25.8	-2.30075E-001	7.55760E-009	0.00000E+000	-2.30000E-001	4.83702E-005	6	..........a	-327.65
	258	25.9	-2.20008E-001	8.29405E-009	0.00000E+000	-2.20000E-001	4.90368E-005	6	..........a	-327.65
	259	26	-2.10059E-001	9.00286E-009	0.00000E+000	-2.10000E-001	4.60368E-005	6	..........a	-327.65
	260	26.1	-2.00035E-001	9.69880E-009	0.00000E+000	-2.00000E-001	5.35035E-005	6	..........a	-327.65
	261	26.2	-1.90103E-001	1.03927E-008	0.00000E+000	-1.90000E-001	4.73702E-005	6	..........a	-327.65
	262	26.3	-1.80020E-001	1.10815E-008	0.00000E+000	-1.80000E-001	4.71035E-005	6	..........a	-327.65
	263	26.4	-1.70023E-001	1.17771E-008	0.00000E+000	-1.70000E-001	5.00368E-005	6	..........a	-327.65
	264	26.5	-1.59992E-001	1.24725E-008	0.00000E+000	-1.60000E-001	4.49368E-005	6	..........a	-327.65
	265	26.6	-1.50049E-001	1.31849E-008	0.00000E+000	-1.50000E-001	4.42702E-005	6	..........a	-327.65
	266	26.7	-1.40044E-001	1.38807E-008	0.00000E+000	-1.40000E-001	4.72702E-005	6	..........a	-327.65
	267	26.8	-1.30057E-001	1.45896E-008	0.00000E+000	-1.30000E-001	4.69368E-005	6	..........a	-327.65
	268	26.9	-1.20016E-001	1.53171E-008	0.00000E+000	-1.20000E-001	4.41368E-005	6	..........a	-327.65
	269	27	-1.10060E-001	1.60054E-008	0.00000E+000	-1.10000E-001	4.18369E-005	6	..........a	-327.65
	270	27.1	-1.00037E-001	1.67256E-008	0.00000E+000	-1.00000E-001	4.86368E-005	6	..........a	-327.65
	271	27.2	-9.00466E-002	1.74612E-008	0.00000E+000	-9.00000E-002	5.42702E-005	6	..........a	-327.65
	272	27.3	-8.00286E-002	1.82160E-008	0.00000E+000	-8.00000E-002	5.01368E-005	6	..........a	-327.65
	273	27.4	-7.00338E-002	1.88967E-008	0.00000E+000	-7.00000E-002	4.85702E-005	6	..........a	-327.65
	274	27.5	-6.00233E-002	1.96877E-008	0.00000E+000	-6.00000E-002	4.68702E-005	6	..........a	-327.65
	275	27.6	-5.00720E-002	2.04851E-008	0.00000E+000	-5.00000E-002	5.57368E-005	6	..........a	-327.65
	276	27.7	-4.00296E-002	2.12194E-008	0.00000E+000	-4.00000E-002	4.86702E-005	6	..........a	-327.65
	277	27.8	-3.00738E-002	2.19881E-008	0.00000E+000	-3.00000E-002	4.65702E-005	6	..........a	-327.65
	278	27.9	-2.00097E-002	2.27873E-008	0.00000E+000	-2.00000E-002	4.82035E-005	6	..........a	-327.65
	279	28	-1.00505E-002	2.36014E-008	0.00000E+000	-1.00000E-002	4.88702E-005	6	..........a	-327.65
	280	28.1	4.89349E-005	2.44245E-008	0.00000E+000	7.45058E-009	4.25035E-005	6	..........a	-327.65
	281	28.2	1.00937E-002	2.52650E-008	0.00000E+000	1.00000E-002	4.25035E-005	6	..........a	-327.65
	282	28.3	2.00722E-002	2.61334E-008	0.00000E+000	2.00000E-002	3.82035E-005	6	..........a	-327.65
	283	28.4	3.00767E-002	2.69816E-008	0.00000E+000	3.00000E-002	4.27368E-005	6	..........a	-327.65
	284	28.5	4.00635E-002	2.78791E-008	0.00000E+000	4.00000E-002	3.95368E-005	6	..........a	-327.65
	285	28.6	5.00871E-002	2.88288E-008	0.00000E+000	5.00000E-002	4.02702E-005	6	..........a	-327.65
	286	28.7	6.00985E-002	2.98087E-008	0.00000E+000	6.00000E-002	3.59368E-005	6	..........a	-327.65
	287	28.8	7.00616E-002	3.08246E-008	0.00000E+000	7.00000E-002	3.98368E-005	6	..........a	-327.65
	288	28.9	8.00768E-002	3.18763E-008	0.00000E+000	8.00000E-002	3.98702E-005	6	..........a	-327.65
	289	29	9.00301E-002	3.29143E-008	0.00000E+000	9.00000E-002	3.98368E-005	6	..........a	-327.65
	290	29.1	1.00085E-001	3.39990E-008	0.00000E+000	1.00000E-001	3.99035E-005	6	..........a	-327.65
	291	29.2	1.10064E-001	3.51034E-008	0.00000E+000	1.10000E-001	3.62368E-005	6	..........a	-327.65
	292	29.3	1.20059E-001	3.62433E-008	0.00000E+000	1.20000E-001	3.80369E-005	6	..........a	-327.65
	293	29.4	1.30065E-001	3.74100E-008	0.00000E+000	1.30000E-001	3.50035E-005	6	..........a	-327.65
	294	29.5	1.40107E-001	3.86170E-008	0.00000E+000	1.40000E-001	3.80702E-005	6	..........a	-327.65
	295	29.6	1.50075E-001	3.98137E-008	0.00000E+000	1.50000E-001	4.29369E-005	6	..........a	-327.65
	296	29.7	1.60070E-001	4.10779E-008	0.00000E+000	1.60000E-001	5.14035E-005	6	..........a	-327.65
	297	29.8	1.70064E-001	4.22844E-008	0.00000E+000	1.70000E-001	4.85035E-005	6	..........a	-327.65
	298	29.9	1.80077E-001	4.35004E-008	0.00000E+000	1.80000E-001	5.43369E-005	6	..........a	-327.65
	299	30	1.90086E-001	4.47126E-008	0.00000E+000	1.90000E-001	4.88702E-005	6	..........a	-327.65
	300	30.1	2.00074E-001	4.59061E-008	0.00000E+000	2.00000E-001	5.07035E-005	6	..........a	-327.65
	301	30.2	2.10072E-001	4.70479E-008	0.00000E+000	2.10000E-001	4.72702E-005	6	..........a	-327.65
	302	30.3	2.20105E-001	4.81670E-008	0.00000E+000	2.20000E-001	4.78702E-005	6	..........a	-327.65
	303	30.4	2.30062E-001	4.92731E-008	0.00000E+000	2.30000E-001	4.74035E-005	6	..........a	-327.65
	304	30.5	2.40092E-001	5.03321E-008	0.00000E+000	2.40000E-001	5.39035E-005	6	..........a	-327.65
	305	30.6	2.50090E-001	5.12942E-008	0.00000E+000	2.50000E-001	5.09702E-005	6	..........a	-327.65
	306	30.7	2.60086E-001	5.22225E-008	0.00000E+000	2.60000E-001	4.50702E-005	6	..........a	-327.65
	307	30.8	2.70024E-001	5.30582E-008	0.00000E+000	2.70000E-001	4.60368E-005	6	..........a	-327.65
	308	30.9	2.80066E-001	5.38794E-008	0.00000E+000	2.80000E-001	4.44368E-005	6	..........a	-327.65
	309	31	2.90096E-001	5.45968E-008	0.00000E+000	2.90000E-001	4.30368E-005	6	..........a	-327.65
	310	31.1	3.00124E-001	5.51992E-008	0.00000E+000	3.00000E-001	4.80368E-005	6	..........a	-327.65
	311	31.2	3.10058E-001	5.57419E-008	0.00000E+000	3.10000E-001	4.53368E-005	6	..........a	-327.65
	312	31.3	3.20070E-001	5.62390E-008	0.00000E+000	3.20000E-001	4.42368E-005	6	..........a	-327.65
	313	31.4	3.30069E-001	5.66216E-008	0.00000E+000	3.30000E-001	4.66702E-005	6	..........a	-327.65
	314	31.5	3.40085E-001	5.69591E-008	0.00000E+000	3.40000E-001	4.31035E-005	6	..........a	-327.65
	315	31.6	3.50057E-001	5.71855E-008	0.00000E+000	3.50000E-001	4.38035E-005	6	..........a	-327.65
	316	31.7	3.60054E-001	5.73363E-008	0.00000E+000	3.60000E-001	4.57035E-005	6	..........a	-327.65
	317	31.8	3.70078E-001	5.73805E-008	0.00000E+000	3.70000E-001	4.38035E-005	6	..........a	-327.65
	318	31.9	3.80085E-001	5.74084E-008	0.00000E+000	3.80000E-001	4.15368E-005	6	..........a	-327.65
	319	32	3.90074E-001	5.73312E-008	0.00000E+000	3.90000E-001	4.28702E-005	6	..........a	-327.65
	320	32.1	4.00104E-001	5.72003E-008	0.00000E+000	4.00000E-001	4.65702E-005	6	..........a	-327.65
	321	32.2	4.10131E-001	5.70133E-008	0.00000E+000	4.10000E-001	4.77702E-005	6	..........a	-327.65
	322	32.3	4.20148E-001	5.67977E-008	0.00000E+000	4.20000E-001	4.95035E-005	6	..........a	-327.65
	323	32.4	4.30113E-001	5.65402E-008	0.00000E+000	4.30000E-001	5.30368E-005	6	..........a	-327.65
	324	32.5	4.40130E-001	5.63206E-008	0.00000E+000	4.40000E-001	5.04035E-005	6	..........a	-327.65
	325	32.6	4.50118E-001	5.60696E-008	0.00000E+000	4.50000E-001	5.11035E-005	6	..........a	-327.65
	326	32.7	4.60165E-001	5.58145E-008	0.00000E+000	4.60000E-001	5.05702E-005	6	..........a	-327.65
	327	32.8	4.70132E-001	5.55468E-008	0.00000E+000	4.70000E-001	5.30368E-005	6	..........a	-327.65
	328	32.9	4.80124E-001	5.53382E-008	0.00000E+000	4.80000E-001	4.77035E-005	6	..........a	-327.65
	329	33	4.90151E-001	5.50991E-008	0.00000E+000	4.90000E-001	4.82702E-005	6	..........a	-327.65
	330	33.1	5.00110E-001	5.48792E-008	0.00000E+000	5.00000E-001	5.16035E-005	6	..........a	-327.65
	331	33.2	5.10127E-001	5.47074E-008	0.00000E+000	5.10000E-001	5.02368E-005	6	..........a	-327.65
	332	33.3	5.20123E-001	5.45708E-008	0.00000E+000	5.20000E-001	5.35368E-005	6	..........a	-327.65
	333	33.4	5.30120E-001	5.44639E-008	0.00000E+000	5.30000E-001	5.37035E-005	6	..........a	-327.65
	334	33.5	5.40148E-001	5.43434E-008	0.00000E+000	5.40000E-001	5.14702E-005	6	..........a	-327.65
	335	33.6	5.50149E-001	5.43311E-008	0.00000E+000	5.50000E-001	5.16035E-005	6	..........a	-327.65
	336	33.7	5.60129E-001	5.42899E-008	0.00000E+000	5.60000E-001	5.10702E-005	6	..........a	-327.65
	337	33.8	5.70148E-001	5.42728E-008	0.00000E+000	5.70000E-001	5.06368E-005	6	..........a	-327.65
	338	33.9	5.80186E-001	5.43430E-008	0.00000E+000	5.80000E-001	4.86702E-005	6	..........a	-327.65
	339	34	5.90117E-001	5.44216E-008	0.00000E+000	5.90000E-001	5.00368E-005	6	..........a	-327.65
	340	34.1	6.00142E-001	5.45102E-008	0.00000E+000	6.00000E-001	4.69368E-005	6	..........a	-327.65
	341	34.2	6.10138E-001	5.46467E-008	0.00000E+000	6.10000E-001	5.05035E-005	6	..........a	-327.65
	342	34.3	6.20148E-001	5.48136E-008	0.00000E+000	6.20000E-001	5.01368E-005	6	..........a	-327.65
	343	34.4	6.30128E-001	5.49791E-008	0.00000E+000	6.30000E-001	4.62368E-005	6	..........a	-327.65
	344	34.5	6.40114E-001	5.52072E-008	0.00000E+000	6.40000E-001	5.30035E-005	6	..........a	-327.65
	345	34.6	6.50163E-001	5.55128E-008	0.00000E+000	6.50000E-001	5.38702E-005	6	..........a	-327.65
	346	34.7	6.60141E-001	5.58204E-008	0.00000E+000	6.60000E-001	4.84702E-005	6	..........a	-327.65
	347	34.8	6.70120E-001	5.62010E-008	0.00000E+000	6.70000E-001	5.25702E-005	6	..........a	-327.65
	348	34.9	6.80097E-001	5.66068E-008	0.00000E+000	6.80000E-001	5.70368E-005	6	..........a	-327.65
	349	35	6.90127E-001	5.70399E-008	0.00000E+000	6.90000E-001	5.51369E-005	6	..........a	-327.65
	350	35.1	7.00164E-001	5.75987E-008	0.00000E+000	7.00000E-001	4.66702E-005	6	..........a	-327.65
	351	35.2	7.10137E-001	5.81353E-008	0.00000E+000	7.10000E-001	4.81035E-005	6	..........a	-327.65
	352	35.3	7.20110E-001	5.87281E-008	0.00000E+000	7.20000E-001	5.01702E-005	6	..........a	-327.65
	353	35.4	7.30074E-001	5.94496E-008	0.00000E+000	7.30000E-001	4.80035E-005	6	..........a	-327.65
	354	35.5	7.40127E-001	6.02221E-008	0.00000E+000	7.40000E-001	4.24702E-005	6	..........a	-327.65
	355	35.6	7.50133E-001	6.09951E-008	0.00000E+000	7.50000E-001	4.52368E-005	6	..........a	-327.65
	356	35.7	7.60140E-001	6.18975E-008	0.00000E+000	7.60000E-001	4.51369E-005	6	..........a	-327.65
	357	35.8	7.70114E-001	6.29976E-008	0.00000E+000	7.70000E-001	4.88702E-005	6	..........a	-327.65
	358	35.9	7.80144E-001	6.40873E-008	0.00000E+000	7.80000E-001	4.52368E-005	6	..........a	-327.65
	359	36	7.90118E-001	6.52538E-008	0.00000E+000	7.90000E-001	4.52702E-005	6	..........a	-327.65
	360	36.1	8.00132E-001	6.65024E-008	0.00000E+000	8.00000E-001	5.22368E-005	6	..........a	-327.65
	361	36.2	7.90163E-001	3.34183E-008	0.00000E+000	7.90000E-001	4.92368E-005	6	..........a	-327.65
	362	36.3	7.80186E-001	2.34737E-008	0.00000E+000	7.80000E-001	5.05702E-005	6	..........a	-327.65
	363	36.4	7.70156E-001	1.65100E-008	0.00000E+000	7.70000E-001	4.84702E-005	6	..........a	-327.65
	364	36.5	7.60177E-001	1.13513E-008	0.00000E+000	7.60000E-001	4.81035E-005	6	..........a	-327.65
	365	36.6	7.50170E-001	7.35481E-009	0.00000E+000	7.50000E-001	5.43702E-005	6	..........a	-327.65
	366	36.7	7.40167E-001	4.19438E-009	0.00000E+000	7.40000E-001	4.75369E-005	6	..........a	-327.65
	367	36.8	7.30109E-001	1.64356E-009	0.00000E+000	7.30000E-001	4.92702E-005	6	..........a	-327.65
	368	36.9	7.20154E-001	-4.65489E-010	0.00000E+000	7.20000E-001	4.59035E-005	6	..........a	-327.65
	369	37	7.10176E-001	-2.22961E-009	0.00000E+000	7.10000E-001	5.04368E-005	6	..........a	-327.65
[...]
	1204	120.5	7.60180E-001	7.25671E-009	0.00000E+000	7.60000E-001	3.65368E-005	6	..........a	-327.65
	1205	120.6	7.50175E-001	3.66799E-009	0.00000E+000	7.50000E-001	3.67702E-005	6	..........a	-327.65
	1206	120.7	7.40172E-001	8.27991E-010	0.00000E+000	7.40000E-001	3.78035E-005	6	..........a	-327.65
	1207	120.8	7.30116E-001	-1.45161E-009	0.00000E+000	7.30000E-001	4.09702E-005	6	..........a	-327.65
	1208	120.9	7.20156E-001	-3.31409E-009	0.00000E+000	7.20000E-001	4.26368E-005	6	..........a	-327.65
	1209	121	7.10178E-001	-4.87785E-009	0.00000E+000	7.10000E-001	3.93368E-005	6	..........a	-327.65
	1210	121.1	7.00212E-001	-6.23375E-009	0.00000E+000	7.00000E-001	4.00035E-005	6	..........a	-327.65
	1211	121.2	6.90176E-001	-7.33731E-009	0.00000E+000	6.90000E-001	4.53702E-005	6	..........a	-327.65
	1212	121.3	6.80141E-001	-8.28309E-009	0.00000E+000	6.80000E-001	4.21702E-005	6	..........a	-327.65
	1213	121.4	6.70163E-001	-9.15608E-009	0.00000E+000	6.70000E-001	4.15702E-005	6	..........a	-327.65
	1214	121.5	6.60184E-001	-9.90790E-009	0.00000E+000	6.60000E-001	4.14035E-005	6	..........a	-327.65
	1215	121.6	6.50209E-001	-1.05621E-008	0.00000E+000	6.50000E-001	4.23702E-005	6	..........a	-327.65
	1216	121.7	6.40153E-001	-1.11047E-008	0.00000E+000	6.40000E-001	4.08702E-005	6	..........a	-327.65
	1217	121.8	6.30171E-001	-1.17670E-008	0.00000E+000	6.30000E-001	4.53035E-005	6	..........a	-327.65
	1218	121.9	6.20194E-001	-1.22745E-008	0.00000E+000	6.20000E-001	4.33035E-005	6	..........a	-327.65
	1219	122	6.10181E-001	-1.27382E-008	0.00000E+000	6.10000E-001	4.14035E-005	6	..........a	-327.65
	1220	122.1	6.00188E-001	-1.31589E-008	0.00000E+000	6.00000E-001	4.30368E-005	6	..........a	-327.65
	1221	122.2	5.90164E-001	-1.35637E-008	0.00000E+000	5.90000E-001	4.64035E-005	6	..........a	-327.65
	1222	122.3	5.80229E-001	-1.39362E-008	0.00000E+000	5.80000E-001	4.08035E-005	6	..........a	-327.65
	1223	122.4	5.70192E-001	-1.43125E-008	0.00000E+000	5.70000E-001	4.28702E-005	6	..........a	-327.65
	1224	122.5	5.60172E-001	-1.46523E-008	0.00000E+000	5.60000E-001	4.31702E-005	6	..........a	-327.65
	1225	122.6	5.50190E-001	-1.49517E-008	0.00000E+000	5.50000E-001	4.54702E-005	6	..........a	-327.65
	1226	122.7	5.40197E-001	-1.52636E-008	0.00000E+000	5.40000E-001	4.73035E-005	6	..........a	-327.65
	1227	122.8	5.30159E-001	-1.55716E-008	0.00000E+000	5.30000E-001	4.67702E-005	6	..........a	-327.65
	1228	122.9	5.20164E-001	-1.58436E-008	0.00000E+000	5.20000E-001	4.92035E-005	6	..........a	-327.65
	1229	123	5.10165E-001	-1.61577E-008	0.00000E+000	5.10000E-001	4.22035E-005	6	..........a	-327.65
	1230	123.1	5.00154E-001	-1.64568E-008	0.00000E+000	5.00000E-001	3.84368E-005	6	..........a	-327.65
	1231	123.2	4.90194E-001	-1.68004E-008	0.00000E+000	4.90000E-001	4.02035E-005	6	..........a	-327.65
	1232	123.3	4.80168E-001	-1.68780E-008	0.00000E+000	4.80000E-001	4.39368E-005	6	..........a	-327.65
	1233	123.4	4.70180E-001	-1.71323E-008	0.00000E+000	4.70000E-001	4.22369E-005	6	..........a	-327.65
	1234	123.5	4.60209E-001	-1.73661E-008	0.00000E+000	4.60000E-001	3.96368E-005	6	..........a	-327.65
	1235	123.6	4.50164E-001	-1.75623E-008	0.00000E+000	4.50000E-001	4.13035E-005	6	..........a	-327.65
	1236	123.7	4.40176E-001	-1.77697E-008	0.00000E+000	4.40000E-001	4.81702E-005	6	..........a	-327.65
	1237	123.8	4.30161E-001	-1.79915E-008	0.00000E+000	4.30000E-001	4.68369E-005	6	..........a	-327.65
	1238	123.9	4.20198E-001	-1.81708E-008	0.00000E+000	4.20000E-001	4.14702E-005	6	..........a	-327.65
	1239	124	4.10188E-001	-1.83189E-008	0.00000E+000	4.10000E-001	4.22702E-005	6	..........a	-327.65
	1240	124.1	4.00151E-001	-1.84251E-008	0.00000E+000	4.00000E-001	4.65702E-005	6	..........a	-327.65
	1241	124.2	3.90121E-001	-1.85268E-008	0.00000E+000	3.90000E-001	4.37035E-005	6	..........a	-327.65
	1242	124.3	3.80132E-001	-1.86281E-008	0.00000E+000	3.80000E-001	4.63368E-005	6	..........a	-327.65
	1243	124.4	3.70129E-001	-1.89122E-008	0.00000E+000	3.70000E-001	4.52035E-005	6	..........a	-327.65
	1244	124.5	3.60093E-001	-1.90476E-008	0.00000E+000	3.60000E-001	4.07702E-005	6	..........a	-327.65
	1245	124.6	3.50112E-001	-1.91516E-008	0.00000E+000	3.50000E-001	4.60702E-005	6	..........a	-327.65
	1246	124.7	3.40132E-001	-1.93006E-008	0.00000E+000	3.40000E-001	4.39368E-005	6	..........a	-327.65
	1247	124.8	3.30104E-001	-1.94215E-008	0.00000E+000	3.30000E-001	4.19368E-005	6	..........a	-327.65
	1248	124.9	3.20113E-001	-1.95404E-008	0.00000E+000	3.20000E-001	4.31702E-005	6	..........a	-327.65
	1249	125	3.10102E-001	-1.96853E-008	0.00000E+000	3.10000E-001	4.10035E-005	6	..........a	-327.65
	1250	125.1	3.00166E-001	-1.98006E-008	0.00000E+000	3.00000E-001	4.44035E-005	6	..........a	-327.65
	1251	125.2	2.90143E-001	-1.99582E-008	0.00000E+000	2.90000E-001	4.23702E-005	6	..........a	-327.65
	1252	125.3	2.80110E-001	-2.00817E-008	0.00000E+000	2.80000E-001	4.16702E-005	6	..........a	-327.65
	1253	125.4	2.70067E-001	-2.02178E-008	0.00000E+000	2.70000E-001	3.72035E-005	6	..........a	-327.65
	1254	125.5	2.60134E-001	-2.03848E-008	0.00000E+000	2.60000E-001	3.92702E-005	6	..........a	-327.65
	1255	125.6	2.50142E-001	-2.05280E-008	0.00000E+000	2.50000E-001	3.71369E-005	6	..........a	-327.65
	1256	125.7	2.40139E-001	-2.07087E-008	0.00000E+000	2.40000E-001	4.49035E-005	6	..........a	-327.65
	1257	125.8	2.30110E-001	-2.09220E-008	0.00000E+000	2.30000E-001	4.29035E-005	6	..........a	-327.65
	1258	125.9	2.20148E-001	-2.10939E-008	0.00000E+000	2.20000E-001	3.64702E-005	6	..........a	-327.65
	1259	126	2.10119E-001	-2.13159E-008	0.00000E+000	2.10000E-001	4.09369E-005	6	..........a	-327.65
	1260	126.1	2.00120E-001	-2.14773E-008	0.00000E+000	2.00000E-001	4.59035E-005	6	..........a	-327.65
	1261	126.2	1.90134E-001	-2.17864E-008	0.00000E+000	1.90000E-001	4.49035E-005	6	..........a	-327.65
	1262	126.3	1.80124E-001	-2.20194E-008	0.00000E+000	1.80000E-001	4.84369E-005	6	..........a	-327.65
	1263	126.4	1.70124E-001	-2.22680E-008	0.00000E+000	1.70000E-001	4.86035E-005	6	..........a	-327.65
	1264	126.5	1.60119E-001	-2.25323E-008	0.00000E+000	1.60000E-001	5.32368E-005	6	..........a	-327.65
	1265	126.6	1.50124E-001	-2.27878E-008	0.00000E+000	1.50000E-001	4.37702E-005	6	..........a	-327.65
	1266	126.7	1.40159E-001	-2.30434E-008	0.00000E+000	1.40000E-001	4.00035E-005	6	..........a	-327.65
	1267	126.8	1.30118E-001	-2.33289E-008	0.00000E+000	1.30000E-001	4.52035E-005	6	..........a	-327.65
	1268	126.9	1.20114E-001	-2.36241E-008	0.00000E+000	1.20000E-001	5.00368E-005	6	..........a	-327.65
	1269	127	1.10115E-001	-2.39038E-008	0.00000E+000	1.10000E-001	4.41702E-005	6	..........a	-327.65
	1270	127.1	1.00142E-001	-2.42059E-008	0.00000E+000	1.00000E-001	4.67368E-005	6	..........a	-327.65
	1271	127.2	9.00806E-002	-2.45105E-008	0.00000E+000	9.00000E-002	4.73035E-005	6	..........a	-327.65
	1272	127.3	8.01235E-002	-2.48033E-008	0.00000E+000	8.00000E-002	4.48368E-005	6	..........a	-327.65
	1273	127.4	7.01074E-002	-2.51197E-008	0.00000E+000	7.00000E-002	4.84702E-005	6	..........a	-327.65
	1274	127.5	6.01532E-002	-2.54478E-008	0.00000E+000	6.00000E-002	4.83368E-005	6	..........a	-327.65
	1275	127.6	5.01384E-002	-2.57829E-008	0.00000E+000	5.00000E-002	4.40368E-005	6	..........a	-327.65
	1276	127.7	4.01154E-002	-2.61049E-008	0.00000E+000	4.00000E-002	4.13035E-005	6	..........a	-327.65
	1277	127.8	3.01252E-002	-2.64633E-008	0.00000E+000	3.00000E-002	4.64702E-005	6	..........a	-327.65
	1278	127.9	2.01199E-002	-2.68151E-008	0.00000E+000	2.00000E-002	4.44035E-005	6	..........a	-327.65
	1279	128	1.01476E-002	-2.71979E-008	0.00000E+000	1.00000E-002	4.40368E-005	6	..........a	-327.65
	1280	128.1	1.03877E-004	-2.75690E-008	0.00000E+000	7.45058E-009	4.41702E-005	6	..........a	-327.65
	1281	128.2	-9.99802E-003	-2.79702E-008	0.00000E+000	-1.00000E-002	4.07035E-005	6	..........a	-327.65
	1282	128.3	-1.99595E-002	-2.83651E-008	0.00000E+000	-2.00000E-002	4.39368E-005	6	..........a	-327.65
	1283	128.4	-3.00232E-002	-2.88058E-008	0.00000E+000	-3.00000E-002	5.07702E-005	6	..........a	-327.65
	1284	128.5	-3.99792E-002	-2.92678E-008	0.00000E+000	-4.00000E-002	4.33035E-005	6	..........a	-327.65
	1285	128.6	-5.00277E-002	-2.96476E-008	0.00000E+000	-5.00000E-002	4.59369E-005	6	..........a	-327.65
	1286	128.7	-5.99699E-002	-3.01738E-008	0.00000E+000	-6.00000E-002	4.16368E-005	6	..........a	-327.65
	1287	128.8	-6.99883E-002	-3.05877E-008	0.00000E+000	-7.00000E-002	4.29702E-005	6	..........a	-327.65
	1288	128.9	-7.99815E-002	-3.11631E-008	0.00000E+000	-8.00000E-002	5.04368E-005	6	..........a	-327.65
	1289	129	-8.99964E-002	-3.16533E-008	0.00000E+000	-9.00000E-002	4.76035E-005	6	..........a	-327.65
	1290	129.1	-9.99875E-002	-3.22077E-008	0.00000E+000	-1.00000E-001	4.55035E-005	6	..........a	-327.65
	1291	129.2	-1.10005E-001	-3.27402E-008	0.00000E+000	-1.10000E-001	3.90368E-005	6	..........a	-327.65
	1292	129.3	-1.19969E-001	-3.33229E-008	0.00000E+000	-1.20000E-001	3.95368E-005	6	..........a	-327.65
	1293	129.4	-1.30014E-001	-3.38957E-008	0.00000E+000	-1.30000E-001	3.93035E-005	6	..........a	-327.65
	1294	129.5	-1.40001E-001	-3.45136E-008	0.00000E+000	-1.40000E-001	4.20035E-005	6	..........a	-327.65
	1295	129.6	-1.50007E-001	-3.51348E-008	0.00000E+000	-1.50000E-001	4.45702E-005	6	..........a	-327.65
	1296	129.7	-1.59949E-001	-3.57819E-008	0.00000E+000	-1.60000E-001	4.67035E-005	6	..........a	-327.65
	1297	129.8	-1.69976E-001	-3.64404E-008	0.00000E+000	-1.70000E-001	4.14035E-005	6	..........a	-327.65
	1298	129.9	-1.79972E-001	-3.71039E-008	0.00000E+000	-1.80000E-001	4.09035E-005	6	..........a	-327.65
	1299	130	-1.90059E-001	-3.78078E-008	0.00000E+000	-1.90000E-001	4.45368E-005	6	..........a	-327.65
	1300	130.1	-1.99987E-001	-3.85061E-008	0.00000E+000	-2.00000E-001	4.19035E-005	6	..........a	-327.65
	1301	130.2	-2.10010E-001	-3.92160E-008	0.00000E+000	-2.10000E-001	4.61368E-005	6	..........a	-327.65
	1302	130.3	-2.19956E-001	-3.99363E-008	0.00000E+000	-2.20000E-001	4.66702E-005	6	..........a	-327.65
	1303	130.4	-2.30023E-001	-4.06560E-008	0.00000E+000	-2.30000E-001	4.45702E-005	6	..........a	-327.65
	1304	130.5	-2.39963E-001	-4.14080E-008	0.00000E+000	-2.40000E-001	4.48702E-005	6	..........a	-327.65
	1305	130.6	-2.50007E-001	-4.21637E-008	0.00000E+000	-2.50000E-001	5.03702E-005	6	..........a	-327.65
	1306	130.7	-2.59958E-001	-4.29318E-008	0.00000E+000	-2.60000E-001	5.05369E-005	6	..........a	-327.65
	1307	130.8	-2.69971E-001	-4.37006E-008	0.00000E+000	-2.70000E-001	4.78368E-005	6	..........a	-327.65
	1308	130.9	-2.79985E-001	-4.44805E-008	0.00000E+000	-2.80000E-001	5.35035E-005	6	..........a	-327.65
	1309	131	-2.89996E-001	-4.52853E-008	0.00000E+000	-2.90000E-001	5.32368E-005	6	..........a	-327.65
	1310	131.1	-2.99975E-001	-4.61069E-008	0.00000E+000	-3.00000E-001	5.00035E-005	6	..........a	-327.65
	1311	131.2	-3.10012E-001	-4.69575E-008	0.00000E+000	-3.10000E-001	5.32368E-005	6	..........a	-327.65
	1312	131.3	-3.19952E-001	-4.78901E-008	0.00000E+000	-3.20000E-001	5.77035E-005	6	..........a	-327.65
	1313	131.4	-3.30013E-001	-4.88106E-008	0.00000E+000	-3.30000E-001	5.27368E-005	6	..........a	-327.65
	1314	131.5	-3.39987E-001	-4.98128E-008	0.00000E+000	-3.40000E-001	4.88702E-005	6	..........a	-327.65
	1315	131.6	-3.50003E-001	-5.08285E-008	0.00000E+000	-3.50000E-001	5.32368E-005	6	..........a	-327.65
	1316	131.7	-3.59969E-001	-5.18758E-008	0.00000E+000	-3.60000E-001	5.39702E-005	6	..........a	-327.65
	1317	131.8	-3.70054E-001	-5.30014E-008	0.00000E+000	-3.70000E-001	5.22368E-005	6	..........a	-327.65
	1318	131.9	-3.79970E-001	-5.41517E-008	0.00000E+000	-3.80000E-001	5.41702E-005	6	..........a	-327.65
	1319	132	-3.90029E-001	-5.53713E-008	0.00000E+000	-3.90000E-001	5.66368E-005	6	..........a	-327.65
	1320	132.1	-3.99987E-001	-5.66294E-008	0.00000E+000	-4.00000E-001	5.76702E-005	6	..........a	-327.65
	1321	132.2	-4.10073E-001	-5.78638E-008	0.00000E+000	-4.10000E-001	5.29035E-005	6	..........a	-327.65
	1322	132.3	-4.20056E-001	-5.91758E-008	0.00000E+000	-4.20000E-001	5.51035E-005	6	..........a	-327.65
	1323	132.4	-4.30067E-001	-6.04673E-008	0.00000E+000	-4.30000E-001	5.80035E-005	6	..........a	-327.65
	1324	132.5	-4.40051E-001	-6.18197E-008	0.00000E+000	-4.40000E-001	6.08368E-005	6	..........a	-327.65
	1325	132.6	-4.50067E-001	-6.31062E-008	0.00000E+000	-4.50000E-001	5.63702E-005	6	..........a	-327.65
	1326	132.7	-4.60061E-001	-6.43967E-008	0.00000E+000	-4.60000E-001	5.26035E-005	6	..........a	-327.65
	1327	132.8	-4.70060E-001	-6.56209E-008	0.00000E+000	-4.70000E-001	5.59368E-005	6	..........a	-327.65
	1328	132.9	-4.80045E-001	-6.67479E-008	0.00000E+000	-4.80000E-001	5.41368E-005	6	..........a	-327.65
	1329	133	-4.90077E-001	-6.78181E-008	0.00000E+000	-4.90000E-001	5.61035E-005	6	..........a	-327.65
	1330	133.1	-5.00057E-001	-6.87343E-008	0.00000E+000	-5.00000E-001	5.31368E-005	6	..........a	-327.65
	1331	133.2	-5.10095E-001	-6.95710E-008	0.00000E+000	-5.10000E-001	5.89035E-005	6	..........a	-327.65
	1332	133.3	-5.20027E-001	-7.03059E-008	0.00000E+000	-5.20000E-001	5.70368E-005	6	..........a	-327.65
	1333	133.4	-5.30052E-001	-7.09420E-008	0.00000E+000	-5.30000E-001	5.88035E-005	6	..........a	-327.65
	1334	133.5	-5.40043E-001	-7.14626E-008	0.00000E+000	-5.40000E-001	5.75035E-005	6	..........a	-327.65
	1335	133.6	-5.50108E-001	-7.18960E-008	0.00000E+000	-5.50000E-001	5.52702E-005	6	..........a	-327.65
	1336	133.7	-5.60056E-001	-7.23054E-008	0.00000E+000	-5.60000E-001	5.49702E-005	6	..........a	-327.65
	1337	133.8	-5.70057E-001	-7.26739E-008	0.00000E+000	-5.70000E-001	4.82702E-005	6	..........a	-327.65
	1338	133.9	-5.80026E-001	-7.30669E-008	0.00000E+000	-5.80000E-001	5.56035E-005	6	..........a	-327.65
	1339	134	-5.90084E-001	-7.35411E-008	0.00000E+000	-5.90000E-001	5.51702E-005	6	..........a	-327.65
	1340	134.1	-6.00078E-001	-7.40271E-008	0.00000E+000	-6.00000E-001	1.14374E-003	6	..........a	-327.65
CURVE6	TABLE
	Pt	T	Vf	Im	Vu	Sig	Ach	IERange	Over	Temp
	#	s	V vs. Ref.	A	V	V	V	#	bits	deg C
	1341	134.2	-5.90123E-001	-4.32065E-008	0.00000E+000	-5.90000E-001	5.22702E-005	6	..........a	-327.65
	1342	134.3	-5.80069E-001	-3.48665E-008	0.00000E+000	-5.80000E-001	4.98035E-005	6	..........a	-327.65
	1343	134.4	-5.70107E-001	-2.91642E-008	0.00000E+000	-5.70000E-001	4.59035E-005	6	..........a	-327.65
	1344	134.5	-5.60106E-001	-2.50018E-008	0.00000E+000	-5.60000E-001	4.24035E-005	6	..........a	-327.65
	1345	134.6	-5.50168E-001	-2.18471E-008	0.00000E+000	-5.50000E-001	4.44035E-005	6	..........a	-327.65
	1346	134.7	-5.40088E-001	-1.93858E-008	0.00000E+000	-5.40000E-001	4.04035E-005	6	..........a	-327.65
	1347	134.8	-5.30102E-001	-1.74610E-008	0.00000E+000	-5.30000E-001	4.74702E-005	6	..........a	-327.65
	1348	134.9	-5.20072E-001	-1.58035E-008	0.00000E+000	-5.20000E-001	4.38702E-005	6	..........a	-327.65
	1349	135	-5.10143E-001	-1.44131E-008	0.00000E+000	-5.10000E-001	4.36368E-005	6	..........a	-327.65
	1350	135.1	-5.00101E-001	-1.31599E-008	0.00000E+000	-5.00000E-001	4.45702E-005	6	..........a	-327.65
	1351	135.2	-4.90130E-001	-1.20155E-008	0.00000E+000	-4.90000E-001	5.08035E-005	6	..........a	-327.65
	1352	135.3	-4.80097E-001	-1.09762E-008	0.00000E+000	-4.80000E-001	5.25035E-005	6	..........a	-327.65
	1353	135.4	-4.70130E-001	-1.00050E-008	0.00000E+000	-4.70000E-001	4.98035E-005	6	..........a	-327.65
	1354	135.5	-4.60106E-001	-9.05395E-009	0.00000E+000	-4.60000E-001	4.64368E-005	6	..........a	-327.65
	1355	135.6	-4.50112E-001	-8.11230E-009	0.00000E+000	-4.50000E-001	4.84702E-005	6	..........a	-327.65
	1356	135.7	-4.40104E-001	-7.21257E-009	0.00000E+000	-4.40000E-001	4.60368E-005	6	..........a	-327.65
	1357	135.8	-4.30115E-001	-6.29540E-009	0.00000E+000	-4.30000E-001	4.47368E-005	6	..........a	-327.65
	1358	135.9	-4.20102E-001	-5.37723E-009	0.00000E+000	-4.20000E-001	4.24702E-005	6	..........a	-327.65
	1359	136	-4.10125E-001	-4.48284E-009	0.00000E+000	-4.10000E-001	4.81368E-005	6	..........a	-327.65
	1360	136.1	-4.00035E-001	-3.58671E-009	0.00000E+000	-4.00000E-001	4.60035E-005	6	..........a	-327.65
	1361	136.2	-3.90083E-001	-2.66207E-009	0.00000E+000	-3.90000E-001	4.98702E-005	6	..........a	-327.65
	1362	136.3	-3.80012E-001	-1.76224E-009	0.00000E+000	-3.80000E-001	4.78035E-005	6	..........a	-327.65
	1363	136.4	-3.70102E-001	-8.72942E-010	0.00000E+000	-3.70000E-001	4.57368E-005	6	..........a	-327.65
	1364	136.5	-3.60026E-001	3.67254E-011	0.00000E+000	-3.60000E-001	4.74702E-005	6	..........a	-327.65
	1365	136.6	-3.50047E-001	9.32155E-010	0.00000E+000	-3.50000E-001	4.25702E-005	6	..........a	-327.65
	1366	136.7	-3.40024E-001	1.77184E-009	0.00000E+000	-3.40000E-001	4.39702E-005	6	..........a	-327.65
	1367	136.8	-3.30057E-001	2.62095E-009	0.00000E+000	-3.30000E-001	4.67035E-005	6	..........a	-327.65
	1368	136.9	-3.20017E-001	3.43602E-009	0.00000E+000	-3.20000E-001	4.80035E-005	6	..........a	-327.65
	1369	137	-3.10056E-001	4.20635E-009	0.00000E+000	-3.10000E-001	4.72035E-005	6	..........a	-327.65
	1370	137.1	-3.00023E-001	4.96271E-009	0.00000E+000	-3.00000E-001	4.38702E-005	6	..........a	-327.65
	1371	137.2	-2.90064E-001	5.67035E-009	0.00000E+000	-2.90000E-001	4.77035E-005	6	..........a	-327.65
	1372	137.3	-2.80036E-001	6.46311E-009	0.00000E+000	-2.80000E-001	5.12368E-005	6	..........a	-327.65
	1373	137.4	-2.70016E-001	7.19473E-009	0.00000E+000	-2.70000E-001	5.13369E-005	6	..........a	-327.65
	1374	137.5	-2.59994E-001	7.86296E-009	0.00000E+000	-2.60000E-001	4.90368E-005	6	..........a	-327.65
	1375	137.6	-2.50048E-001	8.57794E-009	0.00000E+000	-2.50000E-001	4.90368E-005	6	..........a	-327.65
	1376	137.7	-2.40011E-001	9.24650E-009	0.00000E+000	-2.40000E-001	4.73368E-005	6	..........a	-327.65
	1377	137.8	-2.30063E-001	9.92453E-009	0.00000E+000	-2.30000E-001	4.16035E-005	6	..........a	-327.65
	1378	137.9	-2.19996E-001	1.06090E-008	0.00000E+000	-2.20000E-001	4.30702E-005	6	..........a	-327.65
	1379	138	-2.10052E-001	1.12891E-008	0.00000E+000	-2.10000E-001	4.59369E-005	6	..........a	-327.65
	1380	138.1	-2.00033E-001	1.19721E-008	0.00000E+000	-2.00000E-001	4.72368E-005	6	..........a	-327.65
	1381	138.2	-1.90094E-001	1.25816E-008	0.00000E+000	-1.90000E-001	4.46702E-005	6	..........a	-327.65
	1382	138.3	-1.80008E-001	1.32086E-008	0.00000E+000	-1.80000E-001	4.43702E-005	6	..........a	-327.65
	1383	138.4	-1.70019E-001	1.37695E-008	0.00000E+000	-1.70000E-001	4.42368E-005	6	..........a	-327.65
	1384	138.5	-1.59989E-001	1.44738E-008	0.00000E+000	-1.60000E-001	3.94368E-005	6	..........a	-327.65
	1385	138.6	-1.50049E-001	1.51039E-008	0.00000E+000	-1.50000E-001	4.04368E-005	6	..........a	-327.65
	1386	138.7	-1.40029E-001	1.57177E-008	0.00000E+000	-1.40000E-001	3.73035E-005	6	..........a	-327.65
	1387	138.8	-1.30057E-001	1.63429E-008	0.00000E+000	-1.30000E-001	3.98035E-005	6	..........a	-327.65
	1388	138.9	-1.20019E-001	1.70025E-008	0.00000E+000	-1.20000E-001	4.46035E-005	6	..........a	-327.65
	1389	139	-1.10048E-001	1.76302E-008	0.00000E+000	-1.10000E-001	4.04702E-005	6	..........a	-327.65
	1390	139.1	-1.00028E-001	1.82706E-008	0.00000E+000	-1.00000E-001	4.04702E-005	6	..........a	-327.65
	1391	139.2	-9.00421E-002	1.89054E-008	0.00000E+000	-9.00000E-002	4.05035E-005	6	..........a	-327.65
	1392	139.3	-8.00325E-002	1.95622E-008	0.00000E+000	-8.00000E-002	4.15035E-005	6	..........a	-327.65
	1393	139.4	-7.00284E-002	2.01862E-008	0.00000E+000	-7.00000E-002	4.42368E-005	6	..........a	-327.65
	1394	139.5	-6.00176E-002	2.08332E-008	0.00000E+000	-6.00000E-002	3.43702E-005	6	..........a	-327.65
	1395	139.6	-5.00713E-002	2.15356E-008	0.00000E+000	-5.00000E-002	3.73035E-005	6	..........a	-327.65
	1396	139.7	-4.00255E-002	2.22265E-008	0.00000E+000	-4.00000E-002	3.67035E-005	6	..........a	-327.65
	1397	139.8	-3.00713E-002	2.29070E-008	0.00000E+000	-3.00000E-002	3.87702E-005	6	..........a	-327.65
	1398	139.9	-2.00027E-002	2.36381E-008	0.00000E+000	-2.00000E-002	4.01368E-005	6	..........a	-327.65
	1399	140	-1.00527E-002	2.44026E-008	0.00000E+000	-1.00000E-002	3.98368E-005	6	..........a	-327.65
	1400	140.1	4.67179E-005	2.51444E-008	0.00000E+000	7.45058E-009	1.13704E-003	6	..........a	-327.65