File: Figure 1F/data/7.5M.DTA
EXPLAIN
TAG	CV
TITLE	LABEL	Cyclic Voltammetry	Test &Identifier
DATE	LABEL	8/23/2021	Date
TIME	LABEL	21:40:34	Time
NOTES	NOTES	1	&Notes...

PSTAT	PSTAT	REF600P-40007	Potentiostat
VINIT	POTEN	0.00000E+000	F	Initial &E (V)
VLIMIT1	POTEN	8.00000E-001	F	Scan Limit &1 (V)
VLIMIT2	POTEN	-6.00000E-001	F	Scan Limit &2 (V)
VFINAL	POTEN	0.00000E+000	F	Final &E (V)
SCANRATE	QUANT	9.99998E+001	&Scan Rate (mV/s)
STEPSIZE	QUANT	1.00000E+001	St&ep Size (mV)
CYCLES	IQUANT	5	C&ycles (#)
IMODE	SELECTOR	0	I/E Range &Mode
IRANGE	QUANT	3.00000E-001	&Max Current (mA)
AREA	QUANT	2.87000E-005	Electrode &Area (cm^2)
ELECTRODETYPE	SELECTOR	0	Electrode Type
STRIPPING	TOGGLE	F	Used for Stripping
POLARITY	TOGGLE	F	Signal Polarity
CONDIT	TWOPARAM	F	1.50000E+001	0.00000E+000	Conditionin&g	Time(s)	E(V)
DELAY	TWOPARAM	T	5.00000E+000	0.00000E+000	Init. De&lay	Time(s)	Stab.(mV/s)
EQDELAY	QUANT	5.00000E+000	Equil. &Time (s)
IRCOMP	SELECTOR	0	IRCom&p
PFCOR	QUANT	5.00000E+001	PF Corr. (ohm)
SAMPLINGMODE	SELECTOR	2	Sampling &Mode
OCVCURVE	TABLE	19
	Pt	T	Vf	Vm	Ach	Over	Temp
	#	s	V vs. Ref.	V	V	bits	deg C
	0	0.258333	8.96211E-002	8.96211E-002	1.13947E-003	..........a	-327.65
	1	0.516667	8.96287E-002	9.00191E-002	1.13480E-003	..........a	-327.65
	2	0.775	8.96777E-002	9.05186E-002	1.14000E-003	..........a	-327.65
	3	1.03333	8.98247E-002	9.10266E-002	1.13440E-003	..........a	-327.65
	4	1.29167	9.01048E-002	9.14969E-002	1.12967E-003	..........a	-327.65
	5	1.55	9.04996E-002	9.19352E-002	1.13067E-003	..........a	-327.65
	6	1.80833	9.09556E-002	9.23299E-002	1.12920E-003	..........a	-327.65
	7	2.06667	9.14217E-002	9.27388E-002	1.13087E-003	..........a	-327.65
	8	2.325	9.18701E-002	9.31438E-002	1.13054E-003	..........a	-327.65
	9	2.58333	9.22991E-002	9.36860E-002	1.13494E-003	..........a	-327.65
	10	2.84167	9.27306E-002	9.44019E-002	1.13067E-003	..........a	-327.65
	11	3.1	9.31997E-002	9.49235E-002	1.13114E-003	..........a	-327.65
	12	3.35833	9.37236E-002	9.54070E-002	1.13447E-003	..........a	-327.65
	13	3.61667	9.42783E-002	9.58055E-002	1.13307E-003	..........a	-327.65
	14	3.875	9.48154E-002	9.60579E-002	1.12847E-003	..........a	-327.65
	15	4.13333	9.52919E-002	9.62746E-002	1.12994E-003	..........a	-327.65
	16	4.39167	9.56874E-002	9.65977E-002	1.12767E-003	..........a	-327.65
	17	4.65	9.60146E-002	9.69894E-002	1.12447E-003	..........a	-327.65
	18	4.90833	9.63125E-002	9.72615E-002	1.12747E-003	..........a	-327.65
EOC	QUANT	0.0963125	Open Circuit (V)
PSTATMODEL	IQUANT	7	Pstat Model
PSTATSECTION	LABEL	REF600P-40007	Pstat Section
PSTATSERIALNO	LABEL	40007	Pstat Serial Number
CTRLMODE	IQUANT	1	Control Mode
ELECTROMETER	IQUANT	0	RE=0 or CS=1
IESTAB	IQUANT	2	I/E Stability
CASPEED	IQUANT	4	Control Amp Speed
CONVENTION	IQUANT	1	Current Convention
ICHRANGE	IQUANT	2	Ich Range
ICHRANGEMODE	TOGGLE	F	Ich Auto Range
ICHOFFSETENABLE	TOGGLE	F	Ich Offset Enable
ICHOFFSET	QUANT	0	Ich Offset (V)
ICHFILTER	IQUANT	2	Ich Filter
VCHRANGE	IQUANT	2	Vch Range
VCHRANGEMODE	TOGGLE	F	Vch Auto Range
VCHOFFSETENABLE	TOGGLE	F	Vch Offset Enable
VCHOFFSET	QUANT	0	Vch Offset (V)
VCHFILTER	IQUANT	2	Vch Filter
ACHRANGE	IQUANT	2	Ach Range
ACHOFFSETENABLE	TOGGLE	F	Ach Offset Enable
ACHOFFSET	QUANT	0	Ach Offset (V)
ACHFILTER	IQUANT	1	Ach Filter
IERANGELOWERLIMIT	IQUANT	1	I/E Range Lower Limit
IERANGEMODE	TOGGLE	T	I/E AutoRange
IERANGE	IQUANT	8	I/E Range
POSFEEDENABLE	TOGGLE	F	Positive Feedback IR Comp
POSFEEDRESISTANCE	QUANT	0	Positive Feedback Resistance (ohm)
ACHSELECT	IQUANT	0	Ach Select
SENSECABLEID	IQUANT	7	Sense Cable ID
PWRCABLEID	IQUANT	7	Power Cable ID
DCCALDATE	LABEL	8/21/2021	DC Calibration Date
ACCALDATE	LABEL	8/21/2021	AC Calibration Date
THERMOSELECT	IQUANT	1	Thermo Select
FRAMEWORKVERSION	LABEL	7.8.1	Framework Version
INSTRUMENTVERSION	LABEL	4.40	Instrument Version
CURVE1	TABLE
	Pt	T	Vf	Im	Vu	Sig	Ach	IERange	Over	Temp
	#	s	V vs. Ref.	A	V	V	V	#	bits	deg C
	0	0.1	7.65045E-005	1.72481E-007	0.00000E+000	7.45058E-009	1.12154E-003	8	..........a	-327.65
	1	0.2	1.01064E-002	1.98490E-008	0.00000E+000	1.00000E-002	1.13560E-003	7	......s...a	-327.65
	2	0.3	2.00841E-002	9.73624E-009	0.00000E+000	2.00000E-002	1.11964E-003	6	......s...a	-327.65
	3	0.4	3.00836E-002	1.08306E-008	0.00000E+000	3.00000E-002	1.11834E-003	6	..........a	-327.65
	4	0.5	4.00675E-002	1.18240E-008	0.00000E+000	4.00000E-002	3.05035E-005	6	..........a	-327.65
	5	0.6	5.00890E-002	1.27744E-008	0.00000E+000	5.00000E-002	2.93035E-005	6	..........a	-327.65
	6	0.7	6.01064E-002	1.37392E-008	0.00000E+000	6.00000E-002	2.41035E-005	6	..........a	-327.65
	7	0.8	7.00666E-002	1.46486E-008	0.00000E+000	7.00000E-002	2.57368E-005	6	..........a	-327.65
	8	0.9	8.00842E-002	1.56000E-008	0.00000E+000	8.00000E-002	3.36368E-005	6	..........a	-327.65
	9	1	9.00431E-002	1.65236E-008	0.00000E+000	9.00000E-002	3.33702E-005	6	..........a	-327.65
	10	1.1	1.00092E-001	1.74875E-008	0.00000E+000	1.00000E-001	2.67702E-005	6	..........a	-327.65
	11	1.2	1.10072E-001	1.84744E-008	0.00000E+000	1.10000E-001	2.98702E-005	6	..........a	-327.65
	12	1.3	1.20069E-001	1.94906E-008	0.00000E+000	1.20000E-001	3.33702E-005	6	..........a	-327.65
	13	1.4	1.30072E-001	2.05422E-008	0.00000E+000	1.30000E-001	2.90702E-005	6	..........a	-327.65
	14	1.5	1.40108E-001	2.16233E-008	0.00000E+000	1.40000E-001	2.90368E-005	6	..........a	-327.65
	15	1.6	1.50080E-001	2.27333E-008	0.00000E+000	1.50000E-001	2.87702E-005	6	..........a	-327.65
	16	1.7	1.60072E-001	2.39090E-008	0.00000E+000	1.60000E-001	3.20035E-005	6	..........a	-327.65
	17	1.8	1.70063E-001	2.50481E-008	0.00000E+000	1.70000E-001	2.76035E-005	6	..........a	-327.65
	18	1.9	1.80076E-001	2.62087E-008	0.00000E+000	1.80000E-001	2.73702E-005	6	..........a	-327.65
	19	2	1.90084E-001	2.73672E-008	0.00000E+000	1.90000E-001	2.74369E-005	6	..........a	-327.65
	20	2.1	2.00070E-001	2.85043E-008	0.00000E+000	2.00000E-001	2.65035E-005	6	..........a	-327.65
	21	2.2	2.10070E-001	2.95888E-008	0.00000E+000	2.10000E-001	2.32702E-005	6	..........a	-327.65
	22	2.3	2.20097E-001	3.06341E-008	0.00000E+000	2.20000E-001	2.45035E-005	6	..........a	-327.65
	23	2.4	2.30064E-001	3.16298E-008	0.00000E+000	2.30000E-001	2.49035E-005	6	..........a	-327.65
	24	2.5	2.40091E-001	3.25553E-008	0.00000E+000	2.40000E-001	2.37035E-005	6	..........a	-327.65
	25	2.6	2.50088E-001	3.33848E-008	0.00000E+000	2.50000E-001	2.99702E-005	6	..........a	-327.65
	26	2.7	2.60077E-001	3.41698E-008	0.00000E+000	2.60000E-001	2.73035E-005	6	..........a	-327.65
	27	2.8	2.70031E-001	3.48497E-008	0.00000E+000	2.70000E-001	2.76035E-005	6	..........a	-327.65
	28	2.9	2.80063E-001	3.54786E-008	0.00000E+000	2.80000E-001	3.01035E-005	6	..........a	-327.65
	29	3	2.90089E-001	3.60116E-008	0.00000E+000	2.90000E-001	3.08368E-005	6	..........a	-327.65
	30	3.1	3.00105E-001	3.64709E-008	0.00000E+000	3.00000E-001	2.63702E-005	6	..........a	-327.65
	31	3.2	3.10054E-001	3.68501E-008	0.00000E+000	3.10000E-001	2.70368E-005	6	..........a	-327.65
	32	3.3	3.20064E-001	3.71820E-008	0.00000E+000	3.20000E-001	2.56702E-005	6	..........a	-327.65
	33	3.4	3.30065E-001	3.74321E-008	0.00000E+000	3.30000E-001	3.05368E-005	6	..........a	-327.65
	34	3.5	3.40083E-001	3.76205E-008	0.00000E+000	3.40000E-001	2.76368E-005	6	..........a	-327.65
	35	3.6	3.50067E-001	3.77649E-008	0.00000E+000	3.50000E-001	2.61702E-005	6	..........a	-327.65
	36	3.7	3.60057E-001	3.78748E-008	0.00000E+000	3.60000E-001	3.01035E-005	6	..........a	-327.65
	37	3.8	3.70075E-001	3.79246E-008	0.00000E+000	3.70000E-001	2.27369E-005	6	..........a	-327.65
	38	3.9	3.80076E-001	3.79929E-008	0.00000E+000	3.80000E-001	2.43368E-005	6	..........a	-327.65
	39	4	3.90075E-001	3.80427E-008	0.00000E+000	3.90000E-001	1.71702E-005	6	..........a	-327.65
	40	4.1	4.00100E-001	3.81330E-008	0.00000E+000	4.00000E-001	2.30702E-005	6	..........a	-327.65
	41	4.2	4.10132E-001	3.82048E-008	0.00000E+000	4.10000E-001	2.22035E-005	6	..........a	-327.65
	42	4.3	4.20146E-001	3.83078E-008	0.00000E+000	4.20000E-001	2.66369E-005	6	..........a	-327.65
	43	4.4	4.30122E-001	3.84756E-008	0.00000E+000	4.30000E-001	2.17702E-005	6	..........a	-327.65
	44	4.5	4.40136E-001	3.86927E-008	0.00000E+000	4.40000E-001	2.77702E-005	6	..........a	-327.65
	45	4.6	4.50127E-001	3.89922E-008	0.00000E+000	4.50000E-001	2.51035E-005	6	..........a	-327.65
	46	4.7	4.60157E-001	3.93288E-008	0.00000E+000	4.60000E-001	3.19368E-005	6	..........a	-327.65
	47	4.8	4.70133E-001	3.97291E-008	0.00000E+000	4.70000E-001	2.48035E-005	6	..........a	-327.65
	48	4.9	4.80120E-001	4.02059E-008	0.00000E+000	4.80000E-001	2.49702E-005	6	..........a	-327.65
	49	5	4.90147E-001	4.07696E-008	0.00000E+000	4.90000E-001	2.65035E-005	6	..........a	-327.65
	50	5.1	5.00108E-001	4.13981E-008	0.00000E+000	5.00000E-001	3.02035E-005	6	..........a	-327.65
	51	5.2	5.10128E-001	4.20930E-008	0.00000E+000	5.10000E-001	3.22035E-005	6	..........a	-327.65
	52	5.3	5.20122E-001	4.29209E-008	0.00000E+000	5.20000E-001	3.26035E-005	6	..........a	-327.65
	53	5.4	5.30119E-001	4.35657E-008	0.00000E+000	5.30000E-001	2.81368E-005	6	..........a	-327.65
	54	5.5	5.40145E-001	4.44207E-008	0.00000E+000	5.40000E-001	2.94368E-005	6	..........a	-327.65
	55	5.6	5.50145E-001	4.54015E-008	0.00000E+000	5.50000E-001	3.37368E-005	6	..........a	-327.65
	56	5.7	5.60127E-001	4.63335E-008	0.00000E+000	5.60000E-001	2.64035E-005	6	..........a	-327.65
	57	5.8	5.70146E-001	4.72988E-008	0.00000E+000	5.70000E-001	2.76368E-005	6	..........a	-327.65
	58	5.9	5.80184E-001	4.82621E-008	0.00000E+000	5.80000E-001	3.49702E-005	6	..........a	-327.65
	59	6	5.90122E-001	4.92789E-008	0.00000E+000	5.90000E-001	3.65702E-005	6	..........a	-327.65
	60	6.1	6.00142E-001	5.03046E-008	0.00000E+000	6.00000E-001	3.07702E-005	6	..........a	-327.65
	61	6.2	6.10138E-001	5.13391E-008	0.00000E+000	6.10000E-001	3.21035E-005	6	..........a	-327.65
	62	6.3	6.20151E-001	5.24143E-008	0.00000E+000	6.20000E-001	2.79702E-005	6	..........a	-327.65
	63	6.4	6.30144E-001	5.34788E-008	0.00000E+000	6.30000E-001	2.47368E-005	6	..........a	-327.65
	64	6.5	6.40113E-001	5.45437E-008	0.00000E+000	6.40000E-001	2.61702E-005	6	..........a	-327.65
	65	6.6	6.50161E-001	5.56383E-008	0.00000E+000	6.50000E-001	2.73368E-005	6	..........a	-327.65
	66	6.7	6.60140E-001	5.67282E-008	0.00000E+000	6.60000E-001	3.21702E-005	6	..........a	-327.65
	67	6.8	6.70123E-001	5.78204E-008	0.00000E+000	6.70000E-001	2.90702E-005	6	..........a	-327.65
	68	6.9	6.80099E-001	5.88980E-008	0.00000E+000	6.80000E-001	3.35035E-005	6	..........a	-327.65
	69	7	6.90134E-001	6.00143E-008	0.00000E+000	6.90000E-001	3.05368E-005	6	..........a	-327.65
	70	7.1	7.00170E-001	6.11238E-008	0.00000E+000	7.00000E-001	2.92368E-005	6	..........a	-327.65
	71	7.2	7.10148E-001	6.22127E-008	0.00000E+000	7.10000E-001	2.16368E-005	6	..........a	-327.65
	72	7.3	7.20114E-001	6.33531E-008	0.00000E+000	7.20000E-001	2.97035E-005	6	..........a	-327.65
	73	7.4	7.30084E-001	6.45121E-008	0.00000E+000	7.30000E-001	3.01702E-005	6	..........a	-327.65
	74	7.5	7.40125E-001	6.57475E-008	0.00000E+000	7.40000E-001	3.14368E-005	6	..........a	-327.65
	75	7.6	7.50134E-001	6.69448E-008	0.00000E+000	7.50000E-001	3.08368E-005	6	..........a	-327.65
	76	7.7	7.60136E-001	6.82129E-008	0.00000E+000	7.60000E-001	2.67035E-005	6	..........a	-327.65
	77	7.8	7.70121E-001	6.95631E-008	0.00000E+000	7.70000E-001	2.93035E-005	6	..........a	-327.65
	78	7.9	7.80151E-001	7.08987E-008	0.00000E+000	7.80000E-001	2.72368E-005	6	..........a	-327.65
	79	8	7.90124E-001	7.23126E-008	0.00000E+000	7.90000E-001	2.89035E-005	6	..........a	-327.65
	80	8.1	8.00135E-001	7.38311E-008	0.00000E+000	8.00000E-001	1.11897E-003	6	..........a	-327.65
	81	8.2	7.90173E-001	3.74483E-008	0.00000E+000	7.90000E-001	2.84368E-005	6	..........a	-327.65
	82	8.3	7.80189E-001	2.64306E-008	0.00000E+000	7.80000E-001	2.43035E-005	6	..........a	-327.65
	83	8.4	7.70156E-001	1.88271E-008	0.00000E+000	7.70000E-001	2.07702E-005	6	..........a	-327.65
	84	8.5	7.60176E-001	1.31933E-008	0.00000E+000	7.60000E-001	1.89368E-005	6	..........a	-327.65
	85	8.6	7.50178E-001	8.83294E-009	0.00000E+000	7.50000E-001	1.79035E-005	6	..........a	-327.65
	86	8.7	7.40167E-001	5.38450E-009	0.00000E+000	7.40000E-001	1.80368E-005	6	..........a	-327.65
	87	8.8	7.30122E-001	2.60845E-009	0.00000E+000	7.30000E-001	2.36368E-005	6	..........a	-327.65
	88	8.9	7.20158E-001	3.46283E-010	0.00000E+000	7.20000E-001	3.04035E-005	6	..........a	-327.65
	89	9	7.10188E-001	-1.53044E-009	0.00000E+000	7.10000E-001	2.12702E-005	6	..........a	-327.65
	90	9.1	7.00211E-001	-3.12094E-009	0.00000E+000	7.00000E-001	3.17035E-005	6	..........a	-327.65
	91	9.2	6.90177E-001	-4.46603E-009	0.00000E+000	6.90000E-001	3.30368E-005	6	..........a	-327.65
	92	9.3	6.80143E-001	-5.60893E-009	0.00000E+000	6.80000E-001	2.93035E-005	6	..........a	-327.65
	93	9.4	6.70170E-001	-6.62280E-009	0.00000E+000	6.70000E-001	2.89035E-005	6	..........a	-327.65
	94	9.5	6.60180E-001	-7.49159E-009	0.00000E+000	6.60000E-001	2.74702E-005	6	..........a	-327.65
	95	9.6	6.50205E-001	-8.28039E-009	0.00000E+000	6.50000E-001	2.71702E-005	6	..........a	-327.65
	96	9.7	6.40154E-001	-8.98232E-009	0.00000E+000	6.40000E-001	2.93035E-005	6	..........a	-327.65
	97	9.8	6.30186E-001	-9.61181E-009	0.00000E+000	6.30000E-001	3.12702E-005	6	..........a	-327.65
	98	9.9	6.20190E-001	-1.01856E-008	0.00000E+000	6.20000E-001	2.71702E-005	6	..........a	-327.65
	99	10	6.10175E-001	-1.07198E-008	0.00000E+000	6.10000E-001	2.65368E-005	6	..........a	-327.65
	100	10.1	6.00183E-001	-1.12127E-008	0.00000E+000	6.00000E-001	2.42702E-005	6	..........a	-327.65
	101	10.2	5.90161E-001	-1.16350E-008	0.00000E+000	5.90000E-001	2.95035E-005	6	..........a	-327.65
	102	10.3	5.80236E-001	-1.20552E-008	0.00000E+000	5.80000E-001	2.53702E-005	6	..........a	-327.65
	103	10.4	5.70191E-001	-1.24520E-008	0.00000E+000	5.70000E-001	2.34368E-005	6	..........a	-327.65
	104	10.5	5.60175E-001	-1.28528E-008	0.00000E+000	5.60000E-001	2.92035E-005	6	..........a	-327.65
	105	10.6	5.50195E-001	-1.31932E-008	0.00000E+000	5.50000E-001	3.42368E-005	6	..........a	-327.65
	106	10.7	5.40193E-001	-1.35104E-008	0.00000E+000	5.40000E-001	2.92035E-005	6	..........a	-327.65
	107	10.8	5.30164E-001	-1.38018E-008	0.00000E+000	5.30000E-001	2.46369E-005	6	..........a	-327.65
	108	10.9	5.20170E-001	-1.40864E-008	0.00000E+000	5.20000E-001	3.09702E-005	6	..........a	-327.65
	109	11	5.10170E-001	-1.43580E-008	0.00000E+000	5.10000E-001	3.33702E-005	6	..........a	-327.65
	110	11.1	5.00155E-001	-1.45849E-008	0.00000E+000	5.00000E-001	3.42368E-005	6	..........a	-327.65
	111	11.2	4.90193E-001	-1.48417E-008	0.00000E+000	4.90000E-001	3.22035E-005	6	..........a	-327.65
	112	11.3	4.80162E-001	-1.50730E-008	0.00000E+000	4.80000E-001	2.86702E-005	6	..........a	-327.65
	113	11.4	4.70175E-001	-1.53003E-008	0.00000E+000	4.70000E-001	3.25369E-005	6	..........a	-327.65
	114	11.5	4.60206E-001	-1.54974E-008	0.00000E+000	4.60000E-001	3.50369E-005	6	..........a	-327.65
	115	11.6	4.50154E-001	-1.57150E-008	0.00000E+000	4.50000E-001	3.08035E-005	6	..........a	-327.65
	116	11.7	4.40174E-001	-1.58803E-008	0.00000E+000	4.40000E-001	3.51035E-005	6	..........a	-327.65
	117	11.8	4.30158E-001	-1.60758E-008	0.00000E+000	4.30000E-001	3.23702E-005	6	..........a	-327.65
	118	11.9	4.20190E-001	-1.62448E-008	0.00000E+000	4.20000E-001	3.28702E-005	6	..........a	-327.65
	119	12	4.10176E-001	-1.63836E-008	0.00000E+000	4.10000E-001	2.87035E-005	6	..........a	-327.65
	120	12.1	4.00149E-001	-1.65095E-008	0.00000E+000	4.00000E-001	2.80702E-005	6	..........a	-327.65
	121	12.2	3.90115E-001	-1.66645E-008	0.00000E+000	3.90000E-001	3.40368E-005	6	..........a	-327.65
	122	12.3	3.80126E-001	-1.67768E-008	0.00000E+000	3.80000E-001	3.26702E-005	6	..........a	-327.65
	123	12.4	3.70120E-001	-1.68884E-008	0.00000E+000	3.70000E-001	3.05368E-005	6	..........a	-327.65
	124	12.5	3.60094E-001	-1.69924E-008	0.00000E+000	3.60000E-001	2.99035E-005	6	..........a	-327.65
	125	12.6	3.50109E-001	-1.71211E-008	0.00000E+000	3.50000E-001	3.23702E-005	6	..........a	-327.65
	126	12.7	3.40124E-001	-1.72107E-008	0.00000E+000	3.40000E-001	3.48368E-005	6	..........a	-327.65
	127	12.8	3.30106E-001	-1.73153E-008	0.00000E+000	3.30000E-001	3.42368E-005	6	..........a	-327.65
	128	12.9	3.20114E-001	-1.74233E-008	0.00000E+000	3.20000E-001	3.26369E-005	6	..........a	-327.65
	129	13	3.10091E-001	-1.75349E-008	0.00000E+000	3.10000E-001	2.66035E-005	6	..........a	-327.65
	130	13.1	3.00156E-001	-1.76330E-008	0.00000E+000	3.00000E-001	3.08035E-005	6	..........a	-327.65
	131	13.2	2.90133E-001	-1.77505E-008	0.00000E+000	2.90000E-001	3.55702E-005	6	..........a	-327.65
	132	13.3	2.80103E-001	-1.78698E-008	0.00000E+000	2.80000E-001	3.43369E-005	6	..........a	-327.65
	133	13.4	2.70066E-001	-1.79907E-008	0.00000E+000	2.70000E-001	3.42035E-005	6	..........a	-327.65
	134	13.5	2.60124E-001	-1.81066E-008	0.00000E+000	2.60000E-001	3.28035E-005	6	..........a	-327.65
	135	13.6	2.50127E-001	-1.82574E-008	0.00000E+000	2.50000E-001	3.45368E-005	6	..........a	-327.65
	136	13.7	2.40128E-001	-1.84129E-008	0.00000E+000	2.40000E-001	3.34369E-005	6	..........a	-327.65
	137	13.8	2.30102E-001	-1.85680E-008	0.00000E+000	2.30000E-001	3.11368E-005	6	..........a	-327.65
	138	13.9	2.20146E-001	-1.87310E-008	0.00000E+000	2.20000E-001	3.26035E-005	6	..........a	-327.65
	139	14	2.10107E-001	-1.89247E-008	0.00000E+000	2.10000E-001	3.21702E-005	6	..........a	-327.65
	140	14.1	2.00110E-001	-1.91146E-008	0.00000E+000	2.00000E-001	3.53368E-005	6	..........a	-327.65
	141	14.2	1.90125E-001	-1.93336E-008	0.00000E+000	1.90000E-001	2.44368E-005	6	..........a	-327.65
	142	14.3	1.80119E-001	-1.95460E-008	0.00000E+000	1.80000E-001	2.90368E-005	6	..........a	-327.65
	143	14.4	1.70111E-001	-1.97922E-008	0.00000E+000	1.70000E-001	3.39702E-005	6	..........a	-327.65
	144	14.5	1.60112E-001	-2.00462E-008	0.00000E+000	1.60000E-001	3.14368E-005	6	..........a	-327.65
	145	14.6	1.50121E-001	-2.03509E-008	0.00000E+000	1.50000E-001	3.80369E-005	6	..........a	-327.65
	146	14.7	1.40152E-001	-2.05949E-008	0.00000E+000	1.40000E-001	3.33035E-005	6	..........a	-327.65
	147	14.8	1.30111E-001	-2.09029E-008	0.00000E+000	1.30000E-001	3.30368E-005	6	..........a	-327.65
	148	14.9	1.20106E-001	-2.12182E-008	0.00000E+000	1.20000E-001	3.76702E-005	6	..........a	-327.65
	149	15	1.10109E-001	-2.15343E-008	0.00000E+000	1.10000E-001	3.48702E-005	6	..........a	-327.65
	150	15.1	1.00137E-001	-2.18630E-008	0.00000E+000	1.00000E-001	3.00035E-005	6	..........a	-327.65
	151	15.2	9.00754E-002	-2.21652E-008	0.00000E+000	9.00000E-002	2.95702E-005	6	..........a	-327.65
	152	15.3	8.01192E-002	-2.25254E-008	0.00000E+000	8.00000E-002	3.11702E-005	6	..........a	-327.65
	153	15.4	7.01026E-002	-2.29178E-008	0.00000E+000	7.00000E-002	3.54035E-005	6	..........a	-327.65
	154	15.5	6.01407E-002	-2.32698E-008	0.00000E+000	6.00000E-002	3.28368E-005	6	..........a	-327.65
	155	15.6	5.01261E-002	-2.36371E-008	0.00000E+000	5.00000E-002	3.00035E-005	6	..........a	-327.65
	156	15.7	4.01120E-002	-2.40472E-008	0.00000E+000	4.00000E-002	3.36702E-005	6	..........a	-327.65
	157	15.8	3.01190E-002	-2.44841E-008	0.00000E+000	3.00000E-002	3.07702E-005	6	..........a	-327.65
	158	15.9	2.01154E-002	-2.49302E-008	0.00000E+000	2.00000E-002	2.88369E-005	6	..........a	-327.65
	159	16	1.01341E-002	-2.53988E-008	0.00000E+000	1.00000E-002	3.62368E-005	6	..........a	-327.65
	160	16.1	9.78431E-005	-2.59176E-008	0.00000E+000	7.45058E-009	3.65702E-005	6	..........a	-327.65
	161	16.2	-9.99677E-003	-2.64302E-008	0.00000E+000	-1.00000E-002	3.04702E-005	6	..........a	-327.65
	162	16.3	-1.99664E-002	-2.69795E-008	0.00000E+000	-2.00000E-002	3.21702E-005	6	..........a	-327.65
	163	16.4	-3.00272E-002	-2.75517E-008	0.00000E+000	-3.00000E-002	3.43369E-005	6	..........a	-327.65
	164	16.5	-3.99877E-002	-2.81780E-008	0.00000E+000	-4.00000E-002	3.35035E-005	6	..........a	-327.65
	165	16.6	-5.00335E-002	-2.88228E-008	0.00000E+000	-5.00000E-002	3.24035E-005	6	..........a	-327.65
	166	16.7	-5.99688E-002	-2.94927E-008	0.00000E+000	-6.00000E-002	3.65702E-005	6	..........a	-327.65
	167	16.8	-6.99926E-002	-3.01708E-008	0.00000E+000	-7.00000E-002	3.47368E-005	6	..........a	-327.65
	168	16.9	-7.99802E-002	-3.08596E-008	0.00000E+000	-8.00000E-002	3.37035E-005	6	..........a	-327.65
	169	17	-9.00016E-002	-3.16166E-008	0.00000E+000	-9.00000E-002	3.49702E-005	6	..........a	-327.65
	170	17.1	-9.99863E-002	-3.23632E-008	0.00000E+000	-1.00000E-001	3.99368E-005	6	..........a	-327.65
	171	17.2	-1.10007E-001	-3.31469E-008	0.00000E+000	-1.10000E-001	3.47035E-005	6	..........a	-327.65
	172	17.3	-1.19973E-001	-3.39688E-008	0.00000E+000	-1.20000E-001	3.02368E-005	6	..........a	-327.65
	173	17.4	-1.30016E-001	-3.48426E-008	0.00000E+000	-1.30000E-001	3.77035E-005	6	..........a	-327.65
	174	17.5	-1.39982E-001	-3.56940E-008	0.00000E+000	-1.40000E-001	3.48035E-005	6	..........a	-327.65
	175	17.6	-1.50006E-001	-3.66069E-008	0.00000E+000	-1.50000E-001	3.38035E-005	6	..........a	-327.65
	176	17.7	-1.59943E-001	-3.75263E-008	0.00000E+000	-1.60000E-001	3.26035E-005	6	..........a	-327.65
	177	17.8	-1.69978E-001	-3.84359E-008	0.00000E+000	-1.70000E-001	3.76368E-005	6	..........a	-327.65
	178	17.9	-1.79964E-001	-3.93682E-008	0.00000E+000	-1.80000E-001	3.26369E-005	6	..........a	-327.65
	179	18	-1.90044E-001	-4.03177E-008	0.00000E+000	-1.90000E-001	3.34035E-005	6	..........a	-327.65
	180	18.1	-1.99985E-001	-4.12967E-008	0.00000E+000	-2.00000E-001	3.73368E-005	6	..........a	-327.65
	181	18.2	-2.10004E-001	-4.22657E-008	0.00000E+000	-2.10000E-001	3.81035E-005	6	..........a	-327.65
	182	18.3	-2.19958E-001	-4.32157E-008	0.00000E+000	-2.20000E-001	3.97368E-005	6	..........a	-327.65
	183	18.4	-2.30010E-001	-4.42313E-008	0.00000E+000	-2.30000E-001	3.70702E-005	6	..........a	-327.65
	184	18.5	-2.39943E-001	-4.52150E-008	0.00000E+000	-2.40000E-001	3.89035E-005	6	..........a	-327.65
	185	18.6	-2.50003E-001	-4.62313E-008	0.00000E+000	-2.50000E-001	4.45702E-005	6	..........a	-327.65
	186	18.7	-2.59949E-001	-4.72469E-008	0.00000E+000	-2.60000E-001	4.17035E-005	6	..........a	-327.65
	187	18.8	-2.69968E-001	-4.83113E-008	0.00000E+000	-2.70000E-001	4.30702E-005	6	..........a	-327.65
	188	18.9	-2.79974E-001	-4.94167E-008	0.00000E+000	-2.80000E-001	4.49368E-005	6	..........a	-327.65
	189	19	-2.89986E-001	-5.05361E-008	0.00000E+000	-2.90000E-001	4.32035E-005	6	..........a	-327.65
	190	19.1	-2.99972E-001	-5.17291E-008	0.00000E+000	-3.00000E-001	3.96368E-005	6	..........a	-327.65
	191	19.2	-3.10000E-001	-5.29835E-008	0.00000E+000	-3.10000E-001	4.28702E-005	6	..........a	-327.65
	192	19.3	-3.19949E-001	-5.43147E-008	0.00000E+000	-3.20000E-001	4.60702E-005	6	..........a	-327.65
	193	19.4	-3.30003E-001	-5.57204E-008	0.00000E+000	-3.30000E-001	4.48702E-005	6	..........a	-327.65
	194	19.5	-3.39969E-001	-5.72489E-008	0.00000E+000	-3.40000E-001	4.56702E-005	6	..........a	-327.65
	195	19.6	-3.49997E-001	-5.88675E-008	0.00000E+000	-3.50000E-001	5.06368E-005	6	..........a	-327.65
	196	19.7	-3.59963E-001	-6.06495E-008	0.00000E+000	-3.60000E-001	4.59369E-005	6	..........a	-327.65
	197	19.8	-3.70042E-001	-6.25425E-008	0.00000E+000	-3.70000E-001	4.65702E-005	6	..........a	-327.65
	198	19.9	-3.79962E-001	-6.45668E-008	0.00000E+000	-3.80000E-001	4.50035E-005	6	..........a	-327.65
	199	20	-3.90017E-001	-6.67153E-008	0.00000E+000	-3.90000E-001	4.61035E-005	6	..........a	-327.65
	200	20.1	-3.99982E-001	-6.90010E-008	0.00000E+000	-4.00000E-001	4.56702E-005	6	..........a	-327.65
	201	20.2	-4.10067E-001	-7.13726E-008	0.00000E+000	-4.10000E-001	4.35035E-005	6	..........a	-327.65
	202	20.3	-4.20043E-001	-7.38258E-008	0.00000E+000	-4.20000E-001	4.98702E-005	6	..........a	-327.65
	203	20.4	-4.30064E-001	-7.62731E-008	0.00000E+000	-4.30000E-001	4.63368E-005	6	..........a	-327.65
	204	20.5	-4.40041E-001	-7.87031E-008	0.00000E+000	-4.40000E-001	4.36702E-005	6	..........a	-327.65
	205	20.6	-4.50069E-001	-8.10127E-008	0.00000E+000	-4.50000E-001	4.02702E-005	6	..........a	-327.65
	206	20.7	-4.60054E-001	-8.32482E-008	0.00000E+000	-4.60000E-001	4.10702E-005	6	..........a	-327.65
	207	20.8	-4.70069E-001	-8.52449E-008	0.00000E+000	-4.70000E-001	4.48035E-005	6	..........a	-327.65
	208	20.9	-4.80045E-001	-8.70033E-008	0.00000E+000	-4.80000E-001	4.52702E-005	6	..........a	-327.65
	209	21	-4.90073E-001	-8.85788E-008	0.00000E+000	-4.90000E-001	4.08369E-005	6	..........a	-327.65
	210	21.1	-5.00054E-001	-8.98591E-008	0.00000E+000	-5.00000E-001	4.67702E-005	6	..........a	-327.65
	211	21.2	-5.10093E-001	-9.08487E-008	0.00000E+000	-5.10000E-001	4.53368E-005	6	..........a	-327.65
	212	21.3	-5.20008E-001	-9.15273E-008	0.00000E+000	-5.20000E-001	4.66369E-005	6	..........a	-327.65
	213	21.4	-5.30053E-001	-9.19766E-008	0.00000E+000	-5.30000E-001	4.97035E-005	6	..........a	-327.65
	214	21.5	-5.40038E-001	-9.21830E-008	0.00000E+000	-5.40000E-001	4.20702E-005	6	..........a	-327.65
	215	21.6	-5.50108E-001	-9.21317E-008	0.00000E+000	-5.50000E-001	4.36035E-005	6	..........a	-327.65
	216	21.7	-5.60054E-001	-9.18971E-008	0.00000E+000	-5.60000E-001	4.72368E-005	6	..........a	-327.65
	217	21.8	-5.70054E-001	-9.16159E-008	0.00000E+000	-5.70000E-001	4.29035E-005	6	..........a	-327.65
	218	21.9	-5.80034E-001	-9.12299E-008	0.00000E+000	-5.80000E-001	4.00369E-005	6	..........a	-327.65
	219	22	-5.90086E-001	-9.09082E-008	0.00000E+000	-5.90000E-001	4.60368E-005	6	..........a	-327.65
	220	22.1	-6.00077E-001	-9.06865E-008	0.00000E+000	-6.00000E-001	1.14054E-003	6	..........a	-327.65
CURVE2	TABLE
	Pt	T	Vf	Im	Vu	Sig	Ach	IERange	Over	Temp
	#	s	V vs. Ref.	A	V	V	V	#	bits	deg C
	221	22.2	-5.90124E-001	-5.48491E-008	0.00000E+000	-5.90000E-001	4.77035E-005	6	..........a	-327.65
	222	22.3	-5.80072E-001	-4.36959E-008	0.00000E+000	-5.80000E-001	4.74368E-005	6	..........a	-327.65
	223	22.4	-5.70089E-001	-3.60408E-008	0.00000E+000	-5.70000E-001	4.50368E-005	6	..........a	-327.65
	224	22.5	-5.60101E-001	-3.04108E-008	0.00000E+000	-5.60000E-001	4.08369E-005	6	..........a	-327.65
	225	22.6	-5.50155E-001	-2.61167E-008	0.00000E+000	-5.50000E-001	3.60035E-005	6	..........a	-327.65
	226	22.7	-5.40087E-001	-2.28414E-008	0.00000E+000	-5.40000E-001	3.24702E-005	6	..........a	-327.65
	227	22.8	-5.30106E-001	-2.02331E-008	0.00000E+000	-5.30000E-001	3.40702E-005	6	..........a	-327.65
	228	22.9	-5.20063E-001	-1.81720E-008	0.00000E+000	-5.20000E-001	3.00702E-005	6	..........a	-327.65
	229	23	-5.10145E-001	-1.65282E-008	0.00000E+000	-5.10000E-001	4.06702E-005	6	..........a	-327.65
	230	23.1	-5.00105E-001	-1.51430E-008	0.00000E+000	-5.00000E-001	3.94702E-005	6	..........a	-327.65
	231	23.2	-4.90130E-001	-1.39693E-008	0.00000E+000	-4.90000E-001	3.70702E-005	6	..........a	-327.65
	232	23.3	-4.80100E-001	-1.29190E-008	0.00000E+000	-4.80000E-001	3.89035E-005	6	..........a	-327.65
	233	23.4	-4.70132E-001	-1.19813E-008	0.00000E+000	-4.70000E-001	3.79702E-005	6	..........a	-327.65
	234	23.5	-4.60106E-001	-1.10859E-008	0.00000E+000	-4.60000E-001	3.37368E-005	6	..........a	-327.65
	235	23.6	-4.50119E-001	-1.02448E-008	0.00000E+000	-4.50000E-001	2.88702E-005	6	..........a	-327.65
	236	23.7	-4.40104E-001	-9.44546E-009	0.00000E+000	-4.40000E-001	3.32702E-005	6	..........a	-327.65
	237	23.8	-4.30121E-001	-8.66613E-009	0.00000E+000	-4.30000E-001	3.80369E-005	6	..........a	-327.65
	238	23.9	-4.20099E-001	-7.90541E-009	0.00000E+000	-4.20000E-001	2.57702E-005	6	..........a	-327.65
	239	24	-4.10122E-001	-7.12138E-009	0.00000E+000	-4.10000E-001	3.02035E-005	6	..........a	-327.65
	240	24.1	-4.00040E-001	-6.36399E-009	0.00000E+000	-4.00000E-001	2.74035E-005	6	..........a	-327.65
	241	24.2	-3.90084E-001	-5.60327E-009	0.00000E+000	-3.90000E-001	3.35702E-005	6	..........a	-327.65
	242	24.3	-3.80023E-001	-4.81523E-009	0.00000E+000	-3.80000E-001	3.26702E-005	6	..........a	-327.65
	243	24.4	-3.70100E-001	-4.07052E-009	0.00000E+000	-3.70000E-001	3.56035E-005	6	..........a	-327.65
	244	24.5	-3.60026E-001	-3.29599E-009	0.00000E+000	-3.60000E-001	3.52702E-005	6	..........a	-327.65
	245	24.6	-3.50053E-001	-2.47198E-009	0.00000E+000	-3.50000E-001	3.27035E-005	6	..........a	-327.65
	246	24.7	-3.40024E-001	-1.66958E-009	0.00000E+000	-3.40000E-001	3.17035E-005	6	..........a	-327.65
	247	24.8	-3.30062E-001	-9.13087E-010	0.00000E+000	-3.30000E-001	3.22702E-005	6	..........a	-327.65
	248	24.9	-3.20015E-001	1.07279E-010	0.00000E+000	-3.20000E-001	3.44368E-005	6	..........a	-327.65
	249	25	-3.10066E-001	7.45167E-010	0.00000E+000	-3.10000E-001	3.32035E-005	6	..........a	-327.65
	250	25.1	-3.00027E-001	1.48422E-009	0.00000E+000	-3.00000E-001	2.93702E-005	6	..........a	-327.65
	251	25.2	-2.90061E-001	2.20406E-009	0.00000E+000	-2.90000E-001	3.03368E-005	6	..........a	-327.65
	252	25.3	-2.80039E-001	2.94451E-009	0.00000E+000	-2.80000E-001	3.10702E-005	6	..........a	-327.65
	253	25.4	-2.70027E-001	3.65219E-009	0.00000E+000	-2.70000E-001	3.18702E-005	6	..........a	-327.65
	254	25.5	-2.60007E-001	4.39217E-009	0.00000E+000	-2.60000E-001	3.35702E-005	6	..........a	-327.65
	255	25.6	-2.50058E-001	5.10201E-009	0.00000E+000	-2.50000E-001	3.01368E-005	6	..........a	-327.65
	256	25.7	-2.40009E-001	5.81022E-009	0.00000E+000	-2.40000E-001	3.31035E-005	6	..........a	-327.65
	257	25.8	-2.30075E-001	6.53950E-009	0.00000E+000	-2.30000E-001	3.35368E-005	6	..........a	-327.65
	258	25.9	-2.20009E-001	7.27252E-009	0.00000E+000	-2.20000E-001	3.06035E-005	6	..........a	-327.65
	259	26	-2.10062E-001	7.98953E-009	0.00000E+000	-2.10000E-001	3.72368E-005	6	..........a	-327.65
	260	26.1	-2.00037E-001	8.71644E-009	0.00000E+000	-2.00000E-001	3.29702E-005	6	..........a	-327.65
	261	26.2	-1.90097E-001	9.45259E-009	0.00000E+000	-1.90000E-001	3.63035E-005	6	..........a	-327.65
	262	26.3	-1.80019E-001	1.01644E-008	0.00000E+000	-1.80000E-001	3.38035E-005	6	..........a	-327.65
	263	26.4	-1.70031E-001	1.08802E-008	0.00000E+000	-1.70000E-001	3.56368E-005	6	..........a	-327.65
	264	26.5	-1.59994E-001	1.16076E-008	0.00000E+000	-1.60000E-001	2.71035E-005	6	..........a	-327.65
	265	26.6	-1.50056E-001	1.23512E-008	0.00000E+000	-1.50000E-001	3.30702E-005	6	..........a	-327.65
	266	26.7	-1.40031E-001	1.30565E-008	0.00000E+000	-1.40000E-001	3.09702E-005	6	..........a	-327.65
	267	26.8	-1.30057E-001	1.37983E-008	0.00000E+000	-1.30000E-001	3.20368E-005	6	..........a	-327.65
	268	26.9	-1.20019E-001	1.45247E-008	0.00000E+000	-1.20000E-001	2.82035E-005	6	..........a	-327.65
	269	27	-1.10051E-001	1.52763E-008	0.00000E+000	-1.10000E-001	2.92035E-005	6	..........a	-327.65
	270	27.1	-1.00036E-001	1.60113E-008	0.00000E+000	-1.00000E-001	2.92702E-005	6	..........a	-327.65
	271	27.2	-9.00508E-002	1.67947E-008	0.00000E+000	-9.00000E-002	3.44368E-005	6	..........a	-327.65
	272	27.3	-8.00303E-002	1.76092E-008	0.00000E+000	-8.00000E-002	2.75035E-005	6	..........a	-327.65
	273	27.4	-7.00379E-002	1.83917E-008	0.00000E+000	-7.00000E-002	3.01368E-005	6	..........a	-327.65
	274	27.5	-6.00177E-002	1.91764E-008	0.00000E+000	-6.00000E-002	3.35035E-005	6	..........a	-327.65
	275	27.6	-5.00729E-002	2.00287E-008	0.00000E+000	-5.00000E-002	2.76368E-005	6	..........a	-327.65
	276	27.7	-4.00326E-002	2.08203E-008	0.00000E+000	-4.00000E-002	2.43035E-005	6	..........a	-327.65
	277	27.8	-3.00684E-002	2.16396E-008	0.00000E+000	-3.00000E-002	2.77368E-005	6	..........a	-327.65
	278	27.9	-2.00071E-002	2.24910E-008	0.00000E+000	-2.00000E-002	2.59702E-005	6	..........a	-327.65
	279	28	-1.00460E-002	2.33792E-008	0.00000E+000	-1.00000E-002	2.53702E-005	6	..........a	-327.65
	280	28.1	4.87182E-005	2.42970E-008	0.00000E+000	7.45058E-009	3.30368E-005	6	..........a	-327.65
	281	28.2	1.00912E-002	2.52224E-008	0.00000E+000	1.00000E-002	3.32035E-005	6	..........a	-327.65
	282	28.3	2.00719E-002	2.62218E-008	0.00000E+000	2.00000E-002	2.67368E-005	6	..........a	-327.65
	283	28.4	3.00808E-002	2.72506E-008	0.00000E+000	3.00000E-002	2.53368E-005	6	..........a	-327.65
	284	28.5	4.00660E-002	2.83152E-008	0.00000E+000	4.00000E-002	3.15702E-005	6	..........a	-327.65
	285	28.6	5.00894E-002	2.92503E-008	0.00000E+000	5.00000E-002	2.65702E-005	6	..........a	-327.65
	286	28.7	6.00996E-002	3.02998E-008	0.00000E+000	6.00000E-002	3.10702E-005	6	..........a	-327.65
	287	28.8	7.00608E-002	3.13430E-008	0.00000E+000	7.00000E-002	2.81702E-005	6	..........a	-327.65
	288	28.9	8.00800E-002	3.24986E-008	0.00000E+000	8.00000E-002	2.81702E-005	6	..........a	-327.65
	289	29	9.00369E-002	3.36877E-008	0.00000E+000	9.00000E-002	2.29702E-005	6	..........a	-327.65
	290	29.1	1.00083E-001	3.49016E-008	0.00000E+000	1.00000E-001	2.51368E-005	6	..........a	-327.65
	291	29.2	1.10068E-001	3.62148E-008	0.00000E+000	1.10000E-001	2.88035E-005	6	..........a	-327.65
	292	29.3	1.20062E-001	3.75377E-008	0.00000E+000	1.20000E-001	2.99368E-005	6	..........a	-327.65
	293	29.4	1.30071E-001	3.88890E-008	0.00000E+000	1.30000E-001	3.48035E-005	6	..........a	-327.65
	294	29.5	1.40111E-001	4.02229E-008	0.00000E+000	1.40000E-001	2.82035E-005	6	..........a	-327.65
	295	29.6	1.50082E-001	4.16066E-008	0.00000E+000	1.50000E-001	2.79702E-005	6	..........a	-327.65
	296	29.7	1.60069E-001	4.30281E-008	0.00000E+000	1.60000E-001	3.10702E-005	6	..........a	-327.65
	297	29.8	1.70065E-001	4.44843E-008	0.00000E+000	1.70000E-001	3.06035E-005	6	..........a	-327.65
	298	29.9	1.80075E-001	4.57358E-008	0.00000E+000	1.80000E-001	2.68702E-005	6	..........a	-327.65
	299	30	1.90088E-001	4.70887E-008	0.00000E+000	1.90000E-001	3.33035E-005	6	..........a	-327.65
	300	30.1	2.00073E-001	4.84214E-008	0.00000E+000	2.00000E-001	3.18702E-005	6	..........a	-327.65
	301	30.2	2.10078E-001	4.97755E-008	0.00000E+000	2.10000E-001	3.33035E-005	6	..........a	-327.65
	302	30.3	2.20107E-001	5.10983E-008	0.00000E+000	2.20000E-001	3.13702E-005	6	..........a	-327.65
	303	30.4	2.30069E-001	5.23061E-008	0.00000E+000	2.30000E-001	3.45035E-005	6	..........a	-327.65
	304	30.5	2.40092E-001	5.34160E-008	0.00000E+000	2.40000E-001	3.48702E-005	6	..........a	-327.65
	305	30.6	2.50099E-001	5.44628E-008	0.00000E+000	2.50000E-001	2.98368E-005	6	..........a	-327.65
	306	30.7	2.60087E-001	5.54376E-008	0.00000E+000	2.60000E-001	2.46035E-005	6	..........a	-327.65
	307	30.8	2.70036E-001	5.63481E-008	0.00000E+000	2.70000E-001	3.10368E-005	6	..........a	-327.65
	308	30.9	2.80068E-001	5.71899E-008	0.00000E+000	2.80000E-001	3.05702E-005	6	..........a	-327.65
	309	31	2.90095E-001	5.79177E-008	0.00000E+000	2.90000E-001	3.29368E-005	6	..........a	-327.65
	310	31.1	3.00111E-001	5.85277E-008	0.00000E+000	3.00000E-001	3.32368E-005	6	..........a	-327.65
	311	31.2	3.10060E-001	5.91767E-008	0.00000E+000	3.10000E-001	3.38368E-005	6	..........a	-327.65
	312	31.3	3.20072E-001	5.96850E-008	0.00000E+000	3.20000E-001	3.89035E-005	6	..........a	-327.65
	313	31.4	3.30070E-001	6.00285E-008	0.00000E+000	3.30000E-001	3.44035E-005	6	..........a	-327.65
	314	31.5	3.40088E-001	6.02636E-008	0.00000E+000	3.40000E-001	3.81368E-005	6	..........a	-327.65
	315	31.6	3.50070E-001	6.04531E-008	0.00000E+000	3.50000E-001	3.67368E-005	6	..........a	-327.65
	316	31.7	3.60059E-001	6.06226E-008	0.00000E+000	3.60000E-001	3.22368E-005	6	..........a	-327.65
	317	31.8	3.70078E-001	6.08596E-008	0.00000E+000	3.70000E-001	3.18368E-005	6	..........a	-327.65
	318	31.9	3.80079E-001	6.07095E-008	0.00000E+000	3.80000E-001	3.27035E-005	6	..........a	-327.65
	319	32	3.90077E-001	6.04255E-008	0.00000E+000	3.90000E-001	3.23035E-005	6	..........a	-327.65
	320	32.1	4.00100E-001	6.01017E-008	0.00000E+000	4.00000E-001	3.79702E-005	6	..........a	-327.65
	321	32.2	4.10130E-001	5.97042E-008	0.00000E+000	4.10000E-001	3.21702E-005	6	..........a	-327.65
	322	32.3	4.20146E-001	5.93406E-008	0.00000E+000	4.20000E-001	3.42702E-005	6	..........a	-327.65
	323	32.4	4.30120E-001	5.87955E-008	0.00000E+000	4.30000E-001	3.39368E-005	6	..........a	-327.65
	324	32.5	4.40133E-001	5.83347E-008	0.00000E+000	4.40000E-001	3.09702E-005	6	..........a	-327.65
	325	32.6	4.50126E-001	5.79998E-008	0.00000E+000	4.50000E-001	2.63702E-005	6	..........a	-327.65
	326	32.7	4.60158E-001	5.76245E-008	0.00000E+000	4.60000E-001	3.05035E-005	6	..........a	-327.65
	327	32.8	4.70131E-001	5.70420E-008	0.00000E+000	4.70000E-001	2.72035E-005	6	..........a	-327.65
	328	32.9	4.80127E-001	5.69182E-008	0.00000E+000	4.80000E-001	3.08035E-005	6	..........a	-327.65
	329	33	4.90152E-001	5.66440E-008	0.00000E+000	4.90000E-001	3.07702E-005	6	..........a	-327.65
	330	33.1	5.00111E-001	5.63614E-008	0.00000E+000	5.00000E-001	3.24702E-005	6	..........a	-327.65
	331	33.2	5.10127E-001	5.61365E-008	0.00000E+000	5.10000E-001	3.53035E-005	6	..........a	-327.65
	332	33.3	5.20124E-001	5.59840E-008	0.00000E+000	5.20000E-001	3.43035E-005	6	..........a	-327.65
	333	33.4	5.30122E-001	5.57982E-008	0.00000E+000	5.30000E-001	2.75035E-005	6	..........a	-327.65
	334	33.5	5.40149E-001	5.56480E-008	0.00000E+000	5.40000E-001	3.02368E-005	6	..........a	-327.65
	335	33.6	5.50150E-001	5.55247E-008	0.00000E+000	5.50000E-001	3.44368E-005	6	..........a	-327.65
	336	33.7	5.60130E-001	5.54822E-008	0.00000E+000	5.60000E-001	3.15035E-005	6	..........a	-327.65
	337	33.8	5.70148E-001	5.54743E-008	0.00000E+000	5.70000E-001	3.09702E-005	6	..........a	-327.65
	338	33.9	5.80188E-001	5.54549E-008	0.00000E+000	5.80000E-001	3.31702E-005	6	..........a	-327.65
	339	34	5.90122E-001	5.55083E-008	0.00000E+000	5.90000E-001	3.59702E-005	6	..........a	-327.65
	340	34.1	6.00143E-001	5.55934E-008	0.00000E+000	6.00000E-001	3.21035E-005	6	..........a	-327.65
	341	34.2	6.10141E-001	5.56954E-008	0.00000E+000	6.10000E-001	3.75368E-005	6	..........a	-327.65
	342	34.3	6.20146E-001	5.58264E-008	0.00000E+000	6.20000E-001	3.57368E-005	6	..........a	-327.65
	343	34.4	6.30136E-001	5.59854E-008	0.00000E+000	6.30000E-001	2.97035E-005	6	..........a	-327.65
	344	34.5	6.40111E-001	5.62105E-008	0.00000E+000	6.40000E-001	3.73702E-005	6	..........a	-327.65
	345	34.6	6.50160E-001	5.64954E-008	0.00000E+000	6.50000E-001	2.83035E-005	6	..........a	-327.65
	346	34.7	6.60140E-001	5.68105E-008	0.00000E+000	6.60000E-001	3.06368E-005	6	..........a	-327.65
	347	34.8	6.70121E-001	5.74037E-008	0.00000E+000	6.70000E-001	3.01702E-005	6	..........a	-327.65
	348	34.9	6.80096E-001	5.77675E-008	0.00000E+000	6.80000E-001	2.84702E-005	6	..........a	-327.65
	349	35	6.90132E-001	5.80775E-008	0.00000E+000	6.90000E-001	3.52369E-005	6	..........a	-327.65
	350	35.1	7.00162E-001	5.84674E-008	0.00000E+000	7.00000E-001	3.69702E-005	6	..........a	-327.65
	351	35.2	7.10141E-001	5.89943E-008	0.00000E+000	7.10000E-001	3.11702E-005	6	..........a	-327.65
	352	35.3	7.20108E-001	5.95984E-008	0.00000E+000	7.20000E-001	2.71035E-005	6	..........a	-327.65
	353	35.4	7.30071E-001	6.03286E-008	0.00000E+000	7.30000E-001	3.33035E-005	6	..........a	-327.65
	354	35.5	7.40125E-001	6.10765E-008	0.00000E+000	7.40000E-001	2.76368E-005	6	..........a	-327.65
	355	35.6	7.50129E-001	6.19756E-008	0.00000E+000	7.50000E-001	3.54368E-005	6	..........a	-327.65
	356	35.7	7.60137E-001	6.29506E-008	0.00000E+000	7.60000E-001	3.73368E-005	6	..........a	-327.65
	357	35.8	7.70116E-001	6.39396E-008	0.00000E+000	7.70000E-001	3.60035E-005	6	..........a	-327.65
	358	35.9	7.80148E-001	6.50335E-008	0.00000E+000	7.80000E-001	3.75035E-005	6	..........a	-327.65
	359	36	7.90122E-001	6.62665E-008	0.00000E+000	7.90000E-001	3.49702E-005	6	..........a	-327.65
	360	36.1	8.00132E-001	6.76117E-008	0.00000E+000	8.00000E-001	1.12594E-003	6	..........a	-327.65
	361	36.2	7.90170E-001	3.23139E-008	0.00000E+000	7.90000E-001	3.20035E-005	6	..........a	-327.65
	362	36.3	7.80189E-001	2.24987E-008	0.00000E+000	7.80000E-001	3.47702E-005	6	..........a	-327.65
	363	36.4	7.70149E-001	1.57213E-008	0.00000E+000	7.70000E-001	2.96702E-005	6	..........a	-327.65
	364	36.5	7.60174E-001	1.06455E-008	0.00000E+000	7.60000E-001	2.38035E-005	6	..........a	-327.65
	365	36.6	7.50172E-001	6.70679E-009	0.00000E+000	7.50000E-001	2.74702E-005	6	..........a	-327.65
	366	36.7	7.40169E-001	3.56533E-009	0.00000E+000	7.40000E-001	3.58368E-005	6	..........a	-327.65
	367	36.8	7.30116E-001	1.11344E-009	0.00000E+000	7.30000E-001	3.33369E-005	6	..........a	-327.65
	368	36.9	7.20153E-001	-9.43563E-010	0.00000E+000	7.20000E-001	3.21702E-005	6	..........a	-327.65
	369	37	7.10186E-001	-2.62309E-009	0.00000E+000	7.10000E-001	3.35035E-005	6	..........a	-327.65
[...]
	1204	120.5	7.60181E-001	7.32453E-009	0.00000E+000	7.60000E-001	2.75369E-005	6	..........a	-327.65
	1205	120.6	7.50178E-001	3.74715E-009	0.00000E+000	7.50000E-001	3.18368E-005	6	..........a	-327.65
	1206	120.7	7.40172E-001	9.05714E-010	0.00000E+000	7.40000E-001	2.74702E-005	6	..........a	-327.65
	1207	120.8	7.30117E-001	-1.37929E-009	0.00000E+000	7.30000E-001	3.17035E-005	6	..........a	-327.65
	1208	120.9	7.20158E-001	-3.29595E-009	0.00000E+000	7.20000E-001	3.21368E-005	6	..........a	-327.65
	1209	121	7.10192E-001	-4.87018E-009	0.00000E+000	7.10000E-001	3.09702E-005	6	..........a	-327.65
	1210	121.1	7.00215E-001	-6.20798E-009	0.00000E+000	7.00000E-001	3.21702E-005	6	..........a	-327.65
	1211	121.2	6.90176E-001	-7.35465E-009	0.00000E+000	6.90000E-001	3.46035E-005	6	..........a	-327.65
	1212	121.3	6.80145E-001	-8.33293E-009	0.00000E+000	6.80000E-001	3.37368E-005	6	..........a	-327.65
	1213	121.4	6.70169E-001	-9.20562E-009	0.00000E+000	6.70000E-001	3.27035E-005	6	..........a	-327.65
	1214	121.5	6.60184E-001	-9.97762E-009	0.00000E+000	6.60000E-001	3.00368E-005	6	..........a	-327.65
	1215	121.6	6.50207E-001	-1.06606E-008	0.00000E+000	6.50000E-001	3.36702E-005	6	..........a	-327.65
	1216	121.7	6.40154E-001	-1.12932E-008	0.00000E+000	6.40000E-001	3.26702E-005	6	..........a	-327.65
	1217	121.8	6.30181E-001	-1.18482E-008	0.00000E+000	6.30000E-001	3.56035E-005	6	..........a	-327.65
	1218	121.9	6.20194E-001	-1.23656E-008	0.00000E+000	6.20000E-001	3.47368E-005	6	..........a	-327.65
	1219	122	6.10180E-001	-1.28624E-008	0.00000E+000	6.10000E-001	3.47702E-005	6	..........a	-327.65
	1220	122.1	6.00185E-001	-1.33094E-008	0.00000E+000	6.00000E-001	3.51368E-005	6	..........a	-327.65
	1221	122.2	5.90165E-001	-1.37058E-008	0.00000E+000	5.90000E-001	3.14368E-005	6	..........a	-327.65
	1222	122.3	5.80233E-001	-1.40783E-008	0.00000E+000	5.80000E-001	3.63369E-005	6	..........a	-327.65
	1223	122.4	5.70192E-001	-1.44362E-008	0.00000E+000	5.70000E-001	3.57702E-005	6	..........a	-327.65
	1224	122.5	5.60175E-001	-1.47998E-008	0.00000E+000	5.60000E-001	3.46035E-005	6	..........a	-327.65
	1225	122.6	5.50192E-001	-1.51293E-008	0.00000E+000	5.50000E-001	4.17035E-005	6	..........a	-327.65
	1226	122.7	5.40195E-001	-1.54023E-008	0.00000E+000	5.40000E-001	3.89035E-005	6	..........a	-327.65
	1227	122.8	5.30160E-001	-1.56874E-008	0.00000E+000	5.30000E-001	3.63035E-005	6	..........a	-327.65
	1228	122.9	5.20164E-001	-1.59549E-008	0.00000E+000	5.20000E-001	3.34369E-005	6	..........a	-327.65
	1229	123	5.10167E-001	-1.62476E-008	0.00000E+000	5.10000E-001	3.45035E-005	6	..........a	-327.65
	1230	123.1	5.00152E-001	-1.64612E-008	0.00000E+000	5.00000E-001	3.66035E-005	6	..........a	-327.65
	1231	123.2	4.90191E-001	-1.67063E-008	0.00000E+000	4.90000E-001	3.80035E-005	6	..........a	-327.65
	1232	123.3	4.80167E-001	-1.69448E-008	0.00000E+000	4.80000E-001	3.64702E-005	6	..........a	-327.65
	1233	123.4	4.70173E-001	-1.71726E-008	0.00000E+000	4.70000E-001	3.71702E-005	6	..........a	-327.65
	1234	123.5	4.60205E-001	-1.73824E-008	0.00000E+000	4.60000E-001	3.56702E-005	6	..........a	-327.65
	1235	123.6	4.50152E-001	-1.75578E-008	0.00000E+000	4.50000E-001	3.49702E-005	6	..........a	-327.65
	1236	123.7	4.40172E-001	-1.77147E-008	0.00000E+000	4.40000E-001	3.68035E-005	6	..........a	-327.65
	1237	123.8	4.30154E-001	-1.79118E-008	0.00000E+000	4.30000E-001	3.70035E-005	6	..........a	-327.65
	1238	123.9	4.20192E-001	-1.80439E-008	0.00000E+000	4.20000E-001	3.03702E-005	6	..........a	-327.65
	1239	124	4.10180E-001	-1.82317E-008	0.00000E+000	4.10000E-001	3.20368E-005	6	..........a	-327.65
	1240	124.1	4.00154E-001	-1.83427E-008	0.00000E+000	4.00000E-001	3.26702E-005	6	..........a	-327.65
	1241	124.2	3.90120E-001	-1.84851E-008	0.00000E+000	3.90000E-001	2.73035E-005	6	..........a	-327.65
	1242	124.3	3.80133E-001	-1.86069E-008	0.00000E+000	3.80000E-001	3.25369E-005	6	..........a	-327.65
	1243	124.4	3.70127E-001	-1.86989E-008	0.00000E+000	3.70000E-001	3.47035E-005	6	..........a	-327.65
	1244	124.5	3.60099E-001	-1.87785E-008	0.00000E+000	3.60000E-001	3.44368E-005	6	..........a	-327.65
	1245	124.6	3.50113E-001	-1.89097E-008	0.00000E+000	3.50000E-001	3.32035E-005	6	..........a	-327.65
	1246	124.7	3.40133E-001	-1.90000E-008	0.00000E+000	3.40000E-001	3.77035E-005	6	..........a	-327.65
	1247	124.8	3.30113E-001	-1.90845E-008	0.00000E+000	3.30000E-001	3.60702E-005	6	..........a	-327.65
	1248	124.9	3.20115E-001	-1.92108E-008	0.00000E+000	3.20000E-001	3.76702E-005	6	..........a	-327.65
	1249	125	3.10101E-001	-1.93087E-008	0.00000E+000	3.10000E-001	3.74368E-005	6	..........a	-327.65
	1250	125.1	3.00166E-001	-1.94071E-008	0.00000E+000	3.00000E-001	3.54368E-005	6	..........a	-327.65
	1251	125.2	2.90138E-001	-1.95166E-008	0.00000E+000	2.90000E-001	3.43035E-005	6	..........a	-327.65
	1252	125.3	2.80108E-001	-1.96292E-008	0.00000E+000	2.80000E-001	3.38702E-005	6	..........a	-327.65
	1253	125.4	2.70069E-001	-1.97700E-008	0.00000E+000	2.70000E-001	3.39035E-005	6	..........a	-327.65
	1254	125.5	2.60132E-001	-1.99038E-008	0.00000E+000	2.60000E-001	3.19035E-005	6	..........a	-327.65
	1255	125.6	2.50135E-001	-2.00756E-008	0.00000E+000	2.50000E-001	3.19035E-005	6	..........a	-327.65
	1256	125.7	2.40134E-001	-2.02234E-008	0.00000E+000	2.40000E-001	3.29035E-005	6	..........a	-327.65
	1257	125.8	2.30111E-001	-2.03922E-008	0.00000E+000	2.30000E-001	3.18035E-005	6	..........a	-327.65
	1258	125.9	2.20153E-001	-2.05787E-008	0.00000E+000	2.20000E-001	3.59035E-005	6	..........a	-327.65
	1259	126	2.10116E-001	-2.08153E-008	0.00000E+000	2.10000E-001	3.21368E-005	6	..........a	-327.65
	1260	126.1	2.00115E-001	-2.10161E-008	0.00000E+000	2.00000E-001	3.28035E-005	6	..........a	-327.65
	1261	126.2	1.90133E-001	-2.12571E-008	0.00000E+000	1.90000E-001	2.98035E-005	6	..........a	-327.65
	1262	126.3	1.80118E-001	-2.14682E-008	0.00000E+000	1.80000E-001	2.82035E-005	6	..........a	-327.65
	1263	126.4	1.70112E-001	-2.17152E-008	0.00000E+000	1.70000E-001	3.19035E-005	6	..........a	-327.65
	1264	126.5	1.60118E-001	-2.19873E-008	0.00000E+000	1.60000E-001	3.71702E-005	6	..........a	-327.65
	1265	126.6	1.50127E-001	-2.22789E-008	0.00000E+000	1.50000E-001	3.21368E-005	6	..........a	-327.65
	1266	126.7	1.40158E-001	-2.25933E-008	0.00000E+000	1.40000E-001	3.14035E-005	6	..........a	-327.65
	1267	126.8	1.30115E-001	-2.28892E-008	0.00000E+000	1.30000E-001	2.85035E-005	6	..........a	-327.65
	1268	126.9	1.20111E-001	-2.31877E-008	0.00000E+000	1.20000E-001	3.11368E-005	6	..........a	-327.65
	1269	127	1.10113E-001	-2.35053E-008	0.00000E+000	1.10000E-001	3.22702E-005	6	..........a	-327.65
	1270	127.1	1.00140E-001	-2.38543E-008	0.00000E+000	1.00000E-001	3.06035E-005	6	..........a	-327.65
	1271	127.2	9.00808E-002	-2.41671E-008	0.00000E+000	9.00000E-002	3.00702E-005	6	..........a	-327.65
	1272	127.3	8.01238E-002	-2.45243E-008	0.00000E+000	8.00000E-002	2.49368E-005	6	..........a	-327.65
	1273	127.4	7.01089E-002	-2.48708E-008	0.00000E+000	7.00000E-002	2.96702E-005	6	..........a	-327.65
	1274	127.5	6.01505E-002	-2.52157E-008	0.00000E+000	6.00000E-002	3.10035E-005	6	..........a	-327.65
	1275	127.6	5.01309E-002	-2.55983E-008	0.00000E+000	5.00000E-002	2.75035E-005	6	..........a	-327.65
	1276	127.7	4.01144E-002	-2.59740E-008	0.00000E+000	4.00000E-002	3.32035E-005	6	..........a	-327.65
	1277	127.8	3.01243E-002	-2.63679E-008	0.00000E+000	3.00000E-002	3.36035E-005	6	..........a	-327.65
	1278	127.9	2.01196E-002	-2.67722E-008	0.00000E+000	2.00000E-002	3.66702E-005	6	..........a	-327.65
	1279	128	1.01401E-002	-2.71602E-008	0.00000E+000	1.00000E-002	3.51368E-005	6	..........a	-327.65
	1280	128.1	1.08545E-004	-2.75992E-008	0.00000E+000	7.45058E-009	2.90702E-005	6	..........a	-327.65
	1281	128.2	-9.99302E-003	-2.80258E-008	0.00000E+000	-1.00000E-002	3.45368E-005	6	..........a	-327.65
	1282	128.3	-1.99556E-002	-2.84758E-008	0.00000E+000	-2.00000E-002	3.33369E-005	6	..........a	-327.65
	1283	128.4	-3.00197E-002	-2.89541E-008	0.00000E+000	-3.00000E-002	3.43369E-005	6	..........a	-327.65
	1284	128.5	-3.99792E-002	-2.94429E-008	0.00000E+000	-4.00000E-002	3.46702E-005	6	..........a	-327.65
	1285	128.6	-5.00251E-002	-2.99574E-008	0.00000E+000	-5.00000E-002	3.28702E-005	6	..........a	-327.65
	1286	128.7	-5.99646E-002	-3.04876E-008	0.00000E+000	-6.00000E-002	2.94368E-005	6	..........a	-327.65
	1287	128.8	-6.99903E-002	-3.10383E-008	0.00000E+000	-7.00000E-002	3.22368E-005	6	..........a	-327.65
	1288	128.9	-7.99765E-002	-3.16031E-008	0.00000E+000	-8.00000E-002	3.36368E-005	6	..........a	-327.65
	1289	129	-9.00000E-002	-3.21965E-008	0.00000E+000	-9.00000E-002	3.40368E-005	6	..........a	-327.65
	1290	129.1	-9.99824E-002	-3.28233E-008	0.00000E+000	-1.00000E-001	2.90702E-005	6	..........a	-327.65
	1291	129.2	-1.10002E-001	-3.34385E-008	0.00000E+000	-1.10000E-001	3.12369E-005	6	..........a	-327.65
	1292	129.3	-1.19968E-001	-3.40777E-008	0.00000E+000	-1.20000E-001	3.38368E-005	6	..........a	-327.65
	1293	129.4	-1.30014E-001	-3.47425E-008	0.00000E+000	-1.30000E-001	2.72702E-005	6	..........a	-327.65
	1294	129.5	-1.39977E-001	-3.54341E-008	0.00000E+000	-1.40000E-001	2.96368E-005	6	..........a	-327.65
	1295	129.6	-1.50004E-001	-3.61458E-008	0.00000E+000	-1.50000E-001	3.02035E-005	6	..........a	-327.65
	1296	129.7	-1.59942E-001	-3.68654E-008	0.00000E+000	-1.60000E-001	2.47368E-005	6	..........a	-327.65
	1297	129.8	-1.69979E-001	-3.75980E-008	0.00000E+000	-1.70000E-001	3.00035E-005	6	..........a	-327.65
	1298	129.9	-1.79966E-001	-3.83674E-008	0.00000E+000	-1.80000E-001	2.69368E-005	6	..........a	-327.65
	1299	130	-1.90050E-001	-3.91272E-008	0.00000E+000	-1.90000E-001	2.78368E-005	6	..........a	-327.65
	1300	130.1	-1.99987E-001	-3.99394E-008	0.00000E+000	-2.00000E-001	2.80368E-005	6	..........a	-327.65
	1301	130.2	-2.10009E-001	-4.07362E-008	0.00000E+000	-2.10000E-001	2.96702E-005	6	..........a	-327.65
	1302	130.3	-2.19960E-001	-4.15621E-008	0.00000E+000	-2.20000E-001	3.04035E-005	6	..........a	-327.65
	1303	130.4	-2.30017E-001	-4.23662E-008	0.00000E+000	-2.30000E-001	3.08702E-005	6	..........a	-327.65
	1304	130.5	-2.39949E-001	-4.32054E-008	0.00000E+000	-2.40000E-001	3.68035E-005	6	..........a	-327.65
	1305	130.6	-2.50000E-001	-4.40752E-008	0.00000E+000	-2.50000E-001	3.96368E-005	6	..........a	-327.65
	1306	130.7	-2.59944E-001	-4.49372E-008	0.00000E+000	-2.60000E-001	3.55368E-005	6	..........a	-327.65
	1307	130.8	-2.69968E-001	-4.58143E-008	0.00000E+000	-2.70000E-001	4.13035E-005	6	..........a	-327.65
	1308	130.9	-2.79974E-001	-4.67063E-008	0.00000E+000	-2.80000E-001	3.99702E-005	6	..........a	-327.65
	1309	131	-2.89979E-001	-4.76241E-008	0.00000E+000	-2.90000E-001	3.78702E-005	6	..........a	-327.65
	1310	131.1	-2.99970E-001	-4.85811E-008	0.00000E+000	-3.00000E-001	3.64368E-005	6	..........a	-327.65
	1311	131.2	-3.10001E-001	-4.95787E-008	0.00000E+000	-3.10000E-001	3.74035E-005	6	..........a	-327.65
	1312	131.3	-3.19942E-001	-5.05660E-008	0.00000E+000	-3.20000E-001	3.04368E-005	6	..........a	-327.65
	1313	131.4	-3.30000E-001	-5.16267E-008	0.00000E+000	-3.30000E-001	3.73035E-005	6	..........a	-327.65
	1314	131.5	-3.39971E-001	-5.27411E-008	0.00000E+000	-3.40000E-001	3.66368E-005	6	..........a	-327.65
	1315	131.6	-3.49992E-001	-5.39456E-008	0.00000E+000	-3.50000E-001	3.54368E-005	6	..........a	-327.65
	1316	131.7	-3.59961E-001	-5.52025E-008	0.00000E+000	-3.60000E-001	3.67368E-005	6	..........a	-327.65
	1317	131.8	-3.70038E-001	-5.65034E-008	0.00000E+000	-3.70000E-001	3.87702E-005	6	..........a	-327.65
	1318	131.9	-3.79956E-001	-5.78669E-008	0.00000E+000	-3.80000E-001	3.62035E-005	6	..........a	-327.65
	1319	132	-3.90019E-001	-5.93246E-008	0.00000E+000	-3.90000E-001	3.68035E-005	6	..........a	-327.65
	1320	132.1	-3.99979E-001	-6.08435E-008	0.00000E+000	-4.00000E-001	3.94035E-005	6	..........a	-327.65
	1321	132.2	-4.10067E-001	-6.24133E-008	0.00000E+000	-4.10000E-001	3.80035E-005	6	..........a	-327.65
	1322	132.3	-4.20046E-001	-6.40428E-008	0.00000E+000	-4.20000E-001	3.74035E-005	6	..........a	-327.65
	1323	132.4	-4.30062E-001	-6.57467E-008	0.00000E+000	-4.30000E-001	3.97035E-005	6	..........a	-327.65
	1324	132.5	-4.40033E-001	-6.74277E-008	0.00000E+000	-4.40000E-001	4.47035E-005	6	..........a	-327.65
	1325	132.6	-4.50063E-001	-6.91210E-008	0.00000E+000	-4.50000E-001	3.92702E-005	6	..........a	-327.65
	1326	132.7	-4.60050E-001	-7.07659E-008	0.00000E+000	-4.60000E-001	4.57368E-005	6	..........a	-327.65
	1327	132.8	-4.70056E-001	-7.23355E-008	0.00000E+000	-4.70000E-001	4.19368E-005	6	..........a	-327.65
	1328	132.9	-4.80038E-001	-7.38405E-008	0.00000E+000	-4.80000E-001	4.22702E-005	6	..........a	-327.65
	1329	133	-4.90071E-001	-7.52458E-008	0.00000E+000	-4.90000E-001	3.86702E-005	6	..........a	-327.65
	1330	133.1	-5.00051E-001	-7.64842E-008	0.00000E+000	-5.00000E-001	3.41369E-005	6	..........a	-327.65
	1331	133.2	-5.10093E-001	-7.74975E-008	0.00000E+000	-5.10000E-001	3.77368E-005	6	..........a	-327.65
	1332	133.3	-5.20008E-001	-7.83806E-008	0.00000E+000	-5.20000E-001	4.03035E-005	6	..........a	-327.65
	1333	133.4	-5.30051E-001	-7.91445E-008	0.00000E+000	-5.30000E-001	3.80035E-005	6	..........a	-327.65
	1334	133.5	-5.40036E-001	-7.97184E-008	0.00000E+000	-5.40000E-001	3.82702E-005	6	..........a	-327.65
	1335	133.6	-5.50102E-001	-8.01477E-008	0.00000E+000	-5.50000E-001	3.74368E-005	6	..........a	-327.65
	1336	133.7	-5.60049E-001	-8.04646E-008	0.00000E+000	-5.60000E-001	3.54702E-005	6	..........a	-327.65
	1337	133.8	-5.70050E-001	-8.08038E-008	0.00000E+000	-5.70000E-001	3.96035E-005	6	..........a	-327.65
	1338	133.9	-5.80024E-001	-8.09817E-008	0.00000E+000	-5.80000E-001	3.90702E-005	6	..........a	-327.65
	1339	134	-5.90082E-001	-8.12816E-008	0.00000E+000	-5.90000E-001	3.72368E-005	6	..........a	-327.65
	1340	134.1	-6.00074E-001	-8.15946E-008	0.00000E+000	-6.00000E-001	1.13064E-003	6	..........a	-327.65
CURVE6	TABLE
	Pt	T	Vf	Im	Vu	Sig	Ach	IERange	Over	Temp
	#	s	V vs. Ref.	A	V	V	V	#	bits	deg C
	1341	134.2	-5.90119E-001	-4.84780E-008	0.00000E+000	-5.90000E-001	3.77702E-005	6	..........a	-327.65
	1342	134.3	-5.80071E-001	-3.90080E-008	0.00000E+000	-5.80000E-001	3.57035E-005	6	..........a	-327.65
	1343	134.4	-5.70089E-001	-3.24157E-008	0.00000E+000	-5.70000E-001	3.80369E-005	6	..........a	-327.65
	1344	134.5	-5.60099E-001	-2.75394E-008	0.00000E+000	-5.60000E-001	3.39368E-005	6	..........a	-327.65
	1345	134.6	-5.50159E-001	-2.38047E-008	0.00000E+000	-5.50000E-001	3.10702E-005	6	..........a	-327.65
	1346	134.7	-5.40089E-001	-2.09022E-008	0.00000E+000	-5.40000E-001	2.57368E-005	6	..........a	-327.65
	1347	134.8	-5.30104E-001	-1.86211E-008	0.00000E+000	-5.30000E-001	2.84035E-005	6	..........a	-327.65
	1348	134.9	-5.20058E-001	-1.67773E-008	0.00000E+000	-5.20000E-001	3.11035E-005	6	..........a	-327.65
	1349	135	-5.10142E-001	-1.52681E-008	0.00000E+000	-5.10000E-001	3.38702E-005	6	..........a	-327.65
	1350	135.1	-5.00100E-001	-1.39464E-008	0.00000E+000	-5.00000E-001	2.96368E-005	6	..........a	-327.65
	1351	135.2	-4.90127E-001	-1.27972E-008	0.00000E+000	-4.90000E-001	3.22702E-005	6	..........a	-327.65
	1352	135.3	-4.80095E-001	-1.17756E-008	0.00000E+000	-4.80000E-001	3.37702E-005	6	..........a	-327.65
	1353	135.4	-4.70131E-001	-1.08549E-008	0.00000E+000	-4.70000E-001	3.36035E-005	6	..........a	-327.65
	1354	135.5	-4.60109E-001	-9.98935E-009	0.00000E+000	-4.60000E-001	3.34035E-005	6	..........a	-327.65
	1355	135.6	-4.50120E-001	-9.12673E-009	0.00000E+000	-4.50000E-001	3.48702E-005	6	..........a	-327.65
	1356	135.7	-4.40099E-001	-8.30993E-009	0.00000E+000	-4.40000E-001	3.43369E-005	6	..........a	-327.65
	1357	135.8	-4.30117E-001	-7.48252E-009	0.00000E+000	-4.30000E-001	3.65035E-005	6	..........a	-327.65
	1358	135.9	-4.20102E-001	-6.71066E-009	0.00000E+000	-4.20000E-001	3.25702E-005	6	..........a	-327.65
	1359	136	-4.10122E-001	-5.89062E-009	0.00000E+000	-4.10000E-001	3.50702E-005	6	..........a	-327.65
	1360	136.1	-4.00038E-001	-5.09945E-009	0.00000E+000	-4.00000E-001	3.64702E-005	6	..........a	-327.65
	1361	136.2	-3.90081E-001	-4.25864E-009	0.00000E+000	-3.90000E-001	3.50702E-005	6	..........a	-327.65
	1362	136.3	-3.80018E-001	-3.42579E-009	0.00000E+000	-3.80000E-001	3.25369E-005	6	..........a	-327.65
	1363	136.4	-3.70092E-001	-2.58648E-009	0.00000E+000	-3.70000E-001	3.51035E-005	6	..........a	-327.65
	1364	136.5	-3.60021E-001	-1.69428E-009	0.00000E+000	-3.60000E-001	3.49368E-005	6	..........a	-327.65
	1365	136.6	-3.50050E-001	-8.39132E-010	0.00000E+000	-3.50000E-001	3.48702E-005	6	..........a	-327.65
	1366	136.7	-3.40031E-001	1.03176E-011	0.00000E+000	-3.40000E-001	3.48702E-005	6	..........a	-327.65
	1367	136.8	-3.30058E-001	8.38061E-010	0.00000E+000	-3.30000E-001	2.96035E-005	6	..........a	-327.65
	1368	136.9	-3.20013E-001	1.64770E-009	0.00000E+000	-3.20000E-001	3.43702E-005	6	..........a	-327.65
	1369	137	-3.10062E-001	2.47154E-009	0.00000E+000	-3.10000E-001	3.52702E-005	6	..........a	-327.65
	1370	137.1	-3.00029E-001	3.26381E-009	0.00000E+000	-3.00000E-001	3.52035E-005	6	..........a	-327.65
	1371	137.2	-2.90060E-001	4.01966E-009	0.00000E+000	-2.90000E-001	3.51702E-005	6	..........a	-327.65
	1372	137.3	-2.80036E-001	4.80026E-009	0.00000E+000	-2.80000E-001	3.40368E-005	6	..........a	-327.65
	1373	137.4	-2.70025E-001	5.55218E-009	0.00000E+000	-2.70000E-001	3.53035E-005	6	..........a	-327.65
	1374	137.5	-2.60012E-001	6.28246E-009	0.00000E+000	-2.60000E-001	2.82702E-005	6	..........a	-327.65
	1375	137.6	-2.50060E-001	7.00261E-009	0.00000E+000	-2.50000E-001	3.05702E-005	6	..........a	-327.65
	1376	137.7	-2.40013E-001	7.71305E-009	0.00000E+000	-2.40000E-001	3.73368E-005	6	..........a	-327.65
	1377	137.8	-2.30075E-001	8.43173E-009	0.00000E+000	-2.30000E-001	3.13035E-005	6	..........a	-327.65
	1378	137.9	-2.20011E-001	9.11369E-009	0.00000E+000	-2.20000E-001	3.45702E-005	6	..........a	-327.65
	1379	138	-2.10063E-001	9.81737E-009	0.00000E+000	-2.10000E-001	3.44702E-005	6	..........a	-327.65
	1380	138.1	-2.00038E-001	1.05114E-008	0.00000E+000	-2.00000E-001	2.98702E-005	6	..........a	-327.65
	1381	138.2	-1.90103E-001	1.11742E-008	0.00000E+000	-1.90000E-001	3.43369E-005	6	..........a	-327.65
	1382	138.3	-1.80021E-001	1.18533E-008	0.00000E+000	-1.80000E-001	2.77035E-005	6	..........a	-327.65
	1383	138.4	-1.70030E-001	1.25179E-008	0.00000E+000	-1.70000E-001	3.05035E-005	6	..........a	-327.65
	1384	138.5	-1.59990E-001	1.31832E-008	0.00000E+000	-1.60000E-001	2.62368E-005	6	..........a	-327.65
	1385	138.6	-1.50053E-001	1.38688E-008	0.00000E+000	-1.50000E-001	3.04368E-005	6	..........a	-327.65
	1386	138.7	-1.40036E-001	1.45427E-008	0.00000E+000	-1.40000E-001	3.18368E-005	6	..........a	-327.65
	1387	138.8	-1.30063E-001	1.52168E-008	0.00000E+000	-1.30000E-001	3.51035E-005	6	..........a	-327.65
	1388	138.9	-1.20017E-001	1.59157E-008	0.00000E+000	-1.20000E-001	3.23035E-005	6	..........a	-327.65
	1389	139	-1.10057E-001	1.65841E-008	0.00000E+000	-1.10000E-001	3.11368E-005	6	..........a	-327.65
	1390	139.1	-1.00039E-001	1.72596E-008	0.00000E+000	-1.00000E-001	2.75702E-005	6	..........a	-327.65
	1391	139.2	-9.00483E-002	1.79544E-008	0.00000E+000	-9.00000E-002	3.05368E-005	6	..........a	-327.65
	1392	139.3	-8.00283E-002	1.86803E-008	0.00000E+000	-8.00000E-002	2.50368E-005	6	..........a	-327.65
	1393	139.4	-7.00363E-002	1.93605E-008	0.00000E+000	-7.00000E-002	2.61368E-005	6	..........a	-327.65
	1394	139.5	-6.00221E-002	2.00849E-008	0.00000E+000	-6.00000E-002	2.92702E-005	6	..........a	-327.65
	1395	139.6	-5.00773E-002	2.08424E-008	0.00000E+000	-5.00000E-002	2.61368E-005	6	..........a	-327.65
	1396	139.7	-4.00326E-002	2.15890E-008	0.00000E+000	-4.00000E-002	2.95702E-005	6	..........a	-327.65
	1397	139.8	-3.00702E-002	2.23857E-008	0.00000E+000	-3.00000E-002	3.28035E-005	6	..........a	-327.65
	1398	139.9	-2.00052E-002	2.31715E-008	0.00000E+000	-2.00000E-002	3.25035E-005	6	..........a	-327.65
	1399	140	-1.00502E-002	2.39789E-008	0.00000E+000	-1.00000E-002	2.69035E-005	6	..........a	-327.65
	1400	140.1	5.26856E-005	2.48267E-008	0.00000E+000	7.45058E-009	3.22702E-005	6	..........a	-327.65